ExperimentName	Subject	Session	Clock.Information	DataFile.Basename	Display.RefreshRate	ExperimentVersion	Group	RandomSeed	RuntimeCapabilities	RuntimeVersion	RuntimeVersionExpected	SessionDate	SessionStartDateTimeUtc	SessionTime	StudioVersion	Block	CBGroupList	ExampleSit	ExpList	ExpList.Cycle	ExpList.Sample	GroupDescription	GroupNR	InstrMIP3.ACC	InstrMIP3.CRESP	InstrMIP3.DurationError	InstrMIP3.OnsetDelay	InstrMIP3.OnsetTime	InstrMIP3.OnsetToOnsetTime	InstrMIP3.RESP	InstrMIP3.RT	InstrMIP3.RTTime	IntExpList	IntExpList.Cycle	IntExpList.Sample	MoodDes	MoodDes2	MoodDes3	MoodDesLW	Procedure[Block]	resp	Running[Block]	Task	Trial	AffectGrid	AffectGrid.Cycle	AffectGrid.Sample	Arousal	MoodQuestions	MoodQuestions.Cycle	MoodQuestions.Sample	Pleasure	Procedure[Trial]	Question	QuestSlide.RESP	QuestSlide.RT	Running[Trial]
Mood	1	1	<?xml version="1.0"?>\n<Clock xmlns:dt="urn:schemas-microsoft-com:datatypes"><Description dt:dt="string">E-Prime Primary Realtime Clock</Description><StartTime><Timestamp dt:dt="int">0</Timestamp><DateUtc dt:dt="string">2019-03-05T11:10:41Z</DateUtc></StartTime><FrequencyChanges><FrequencyChange><Frequency dt:dt="r8">3312705</Frequency><Timestamp dt:dt="r8">37292426121</Timestamp><Current dt:dt="r8">0</Current><DateUtc dt:dt="string">2019-03-05T11:10:41Z</DateUtc></FrequencyChange></FrequencyChanges></Clock>\n	Mood-1-1	60.005	1.0.0.399	1	-1361634527	Professional	2.0.10.356	2.0.10.356	03-05-2019	5-3-2019 11:10:41	12:10:41	2.0.10.252	1	1	It’s your birthday and your friends throw you an amazing surprise party! All of your favorite people are there, and they are having a great time together with you, doing the best imaginable birthday activities. 				E	1										1	1	1	excited			an excited	InitializeProc		IntExpList															
Mood	1	1	<?xml version="1.0"?>\n<Clock xmlns:dt="urn:schemas-microsoft-com:datatypes"><Description dt:dt="string">E-Prime Primary Realtime Clock</Description><StartTime><Timestamp dt:dt="int">0</Timestamp><DateUtc dt:dt="string">2019-03-05T11:10:41Z</DateUtc></StartTime><FrequencyChanges><FrequencyChange><Frequency dt:dt="r8">3312705</Frequency><Timestamp dt:dt="r8">37292426121</Timestamp><Current dt:dt="r8">0</Current><DateUtc dt:dt="string">2019-03-05T11:10:41Z</DateUtc></FrequencyChange></FrequencyChanges></Clock>\n	Mood-1-1	60.005	1.0.0.399	1	-1361634527	Professional	2.0.10.356	2.0.10.356	03-05-2019	5-3-2019 11:10:41	12:10:41	2.0.10.252	2																	2	1	2					Mood		IntExpList		1	1	1	1	7				7	AffectGridProc				AffectGrid
Mood	1	1	<?xml version="1.0"?>\n<Clock xmlns:dt="urn:schemas-microsoft-com:datatypes"><Description dt:dt="string">E-Prime Primary Realtime Clock</Description><StartTime><Timestamp dt:dt="int">0</Timestamp><DateUtc dt:dt="string">2019-03-05T11:10:41Z</DateUtc></StartTime><FrequencyChanges><FrequencyChange><Frequency dt:dt="r8">3312705</Frequency><Timestamp dt:dt="r8">37292426121</Timestamp><Current dt:dt="r8">0</Current><DateUtc dt:dt="string">2019-03-05T11:10:41Z</DateUtc></FrequencyChange></FrequencyChanges></Clock>\n	Mood-1-1	60.005	1.0.0.399	1	-1361634527	Professional	2.0.10.356	2.0.10.356	03-05-2019	5-3-2019 11:10:41	12:10:41	2.0.10.252	3	1	It’s your birthday and your friends throw you an amazing surprise party! All of your favorite people are there, and they are having a great time together with you, doing the best imaginable birthday activities. 	1	1	1	E	1	1		0	-1	113441	600037		0	0				excited			an excited	MoodProc	?	ExpList	Music														
Mood	1	1	<?xml version="1.0"?>\n<Clock xmlns:dt="urn:schemas-microsoft-com:datatypes"><Description dt:dt="string">E-Prime Primary Realtime Clock</Description><StartTime><Timestamp dt:dt="int">0</Timestamp><DateUtc dt:dt="string">2019-03-05T11:10:41Z</DateUtc></StartTime><FrequencyChanges><FrequencyChange><Frequency dt:dt="r8">3312705</Frequency><Timestamp dt:dt="r8">37292426121</Timestamp><Current dt:dt="r8">0</Current><DateUtc dt:dt="string">2019-03-05T11:10:41Z</DateUtc></FrequencyChange></FrequencyChanges></Clock>\n	Mood-1-1	60.005	1.0.0.399	1	-1361634527	Professional	2.0.10.356	2.0.10.356	03-05-2019	5-3-2019 11:10:41	12:10:41	2.0.10.252	4			2	1	2																			Mood	a	ExpList	Mood2	1	1	2	2	6				9	AffectGridProc				AffectGrid
Mood	1	1	<?xml version="1.0"?>\n<Clock xmlns:dt="urn:schemas-microsoft-com:datatypes"><Description dt:dt="string">E-Prime Primary Realtime Clock</Description><StartTime><Timestamp dt:dt="int">0</Timestamp><DateUtc dt:dt="string">2019-03-05T11:10:41Z</DateUtc></StartTime><FrequencyChanges><FrequencyChange><Frequency dt:dt="r8">3312705</Frequency><Timestamp dt:dt="r8">37292426121</Timestamp><Current dt:dt="r8">0</Current><DateUtc dt:dt="string">2019-03-05T11:10:41Z</DateUtc></FrequencyChange></FrequencyChanges></Clock>\n	Mood-1-1	60.005	1.0.0.399	1	-1361634527	Professional	2.0.10.356	2.0.10.356	03-05-2019	5-3-2019 11:10:41	12:10:41	2.0.10.252	5			3	1	3																			MoodQuest	?	ExpList	Quest	1					1	1	1		MoodQuestProc	How difficult did you find it to get into the mood, on a scale of 1 (not at all) to 8 (very much)?	3	10259	MoodQuestions
Mood	1	1	<?xml version="1.0"?>\n<Clock xmlns:dt="urn:schemas-microsoft-com:datatypes"><Description dt:dt="string">E-Prime Primary Realtime Clock</Description><StartTime><Timestamp dt:dt="int">0</Timestamp><DateUtc dt:dt="string">2019-03-05T11:10:41Z</DateUtc></StartTime><FrequencyChanges><FrequencyChange><Frequency dt:dt="r8">3312705</Frequency><Timestamp dt:dt="r8">37292426121</Timestamp><Current dt:dt="r8">0</Current><DateUtc dt:dt="string">2019-03-05T11:10:41Z</DateUtc></FrequencyChange></FrequencyChanges></Clock>\n	Mood-1-1	60.005	1.0.0.399	1	-1361634527	Professional	2.0.10.356	2.0.10.356	03-05-2019	5-3-2019 11:10:41	12:10:41	2.0.10.252	5			3	1	3																			MoodQuest	?	ExpList	Quest	2					2	1	2		MoodQuestProc	How much did the example story help to get into the mood, on a scale of 1 (not at all) to 8 (very much)?	5	5581	MoodQuestions
Mood	1	1	<?xml version="1.0"?>\n<Clock xmlns:dt="urn:schemas-microsoft-com:datatypes"><Description dt:dt="string">E-Prime Primary Realtime Clock</Description><StartTime><Timestamp dt:dt="int">0</Timestamp><DateUtc dt:dt="string">2019-03-05T11:10:41Z</DateUtc></StartTime><FrequencyChanges><FrequencyChange><Frequency dt:dt="r8">3312705</Frequency><Timestamp dt:dt="r8">37292426121</Timestamp><Current dt:dt="r8">0</Current><DateUtc dt:dt="string">2019-03-05T11:10:41Z</DateUtc></FrequencyChange></FrequencyChanges></Clock>\n	Mood-1-1	60.005	1.0.0.399	1	-1361634527	Professional	2.0.10.356	2.0.10.356	03-05-2019	5-3-2019 11:10:41	12:10:41	2.0.10.252	5			3	1	3																			MoodQuest	?	ExpList	Quest	3					3	1	3		MoodQuestProc	How much did the music help to get into the mood, on a scale of 1 (not at all) to 8 (very much)?	6	3889	MoodQuestions
Mood	1	1	<?xml version="1.0"?>\n<Clock xmlns:dt="urn:schemas-microsoft-com:datatypes"><Description dt:dt="string">E-Prime Primary Realtime Clock</Description><StartTime><Timestamp dt:dt="int">0</Timestamp><DateUtc dt:dt="string">2019-03-05T11:10:41Z</DateUtc></StartTime><FrequencyChanges><FrequencyChange><Frequency dt:dt="r8">3312705</Frequency><Timestamp dt:dt="r8">37292426121</Timestamp><Current dt:dt="r8">0</Current><DateUtc dt:dt="string">2019-03-05T11:10:41Z</DateUtc></FrequencyChange></FrequencyChanges></Clock>\n	Mood-1-1	60.005	1.0.0.399	1	-1361634527	Professional	2.0.10.356	2.0.10.356	03-05-2019	5-3-2019 11:10:41	12:10:41	2.0.10.252	5			3	1	3																			MoodQuest	?	ExpList	Quest	4					4	1	4		MoodQuestProc	How much did your own memory help to get into the mood, on a scale of 1 (not at all) to 8 (very much)?	6	4057	MoodQuestions
Mood	1	1	<?xml version="1.0"?>\n<Clock xmlns:dt="urn:schemas-microsoft-com:datatypes"><Description dt:dt="string">E-Prime Primary Realtime Clock</Description><StartTime><Timestamp dt:dt="int">0</Timestamp><DateUtc dt:dt="string">2019-03-05T11:10:41Z</DateUtc></StartTime><FrequencyChanges><FrequencyChange><Frequency dt:dt="r8">3312705</Frequency><Timestamp dt:dt="r8">37292426121</Timestamp><Current dt:dt="r8">0</Current><DateUtc dt:dt="string">2019-03-05T11:10:41Z</DateUtc></FrequencyChange></FrequencyChanges></Clock>\n	Mood-1-1	60.005	1.0.0.399	1	-1361634527	Professional	2.0.10.356	2.0.10.356	03-05-2019	5-3-2019 11:10:41	12:10:41	2.0.10.252	6			4	1	4																			Mood	a	ExpList	Mood3	1	1	3	3	7				9	AffectGridProc				AffectGrid
Mood	10	1	<?xml version="1.0"?>\n<Clock xmlns:dt="urn:schemas-microsoft-com:datatypes"><Description dt:dt="string">E-Prime Primary Realtime Clock</Description><StartTime><Timestamp dt:dt="int">0</Timestamp><DateUtc dt:dt="string">2019-03-08T12:20:32Z</DateUtc></StartTime><FrequencyChanges><FrequencyChange><Frequency dt:dt="r8">3312675</Frequency><Timestamp dt:dt="r8">45711090583</Timestamp><Current dt:dt="r8">0</Current><DateUtc dt:dt="string">2019-03-08T12:20:32Z</DateUtc></FrequencyChange></FrequencyChanges></Clock>\n	Mood-10-1	60.004	1.0.0.399	1	-1532875084	Professional	2.0.10.356	2.0.10.356	03-08-2019	8-3-2019 12:20:32	13:20:32	2.0.10.252	1	2	A relative of yours, with whom you’ve shared a close relationship, has been diagnosed with early-onset Alzheimers. Whereas (s)he used to be full of life and wisdom, you can see the passion fade away as (s)he forgets more and more, until eventually (s)he doesn’t even remember you and the great times you’ve had anymore. 				S	2										1	1	1	sad	Before we continue to the task, I, the experimenter, would like to assure you that at the end of the task, I will make sure you get back to a normal mood.	Are you still a bit down? The experiment leader has a nice little surprise for you. Hopefully it will make you feel a little better.  	a sad	InitializeProc		IntExpList															
Mood	10	1	<?xml version="1.0"?>\n<Clock xmlns:dt="urn:schemas-microsoft-com:datatypes"><Description dt:dt="string">E-Prime Primary Realtime Clock</Description><StartTime><Timestamp dt:dt="int">0</Timestamp><DateUtc dt:dt="string">2019-03-08T12:20:32Z</DateUtc></StartTime><FrequencyChanges><FrequencyChange><Frequency dt:dt="r8">3312675</Frequency><Timestamp dt:dt="r8">45711090583</Timestamp><Current dt:dt="r8">0</Current><DateUtc dt:dt="string">2019-03-08T12:20:32Z</DateUtc></FrequencyChange></FrequencyChanges></Clock>\n	Mood-10-1	60.004	1.0.0.399	1	-1532875084	Professional	2.0.10.356	2.0.10.356	03-08-2019	8-3-2019 12:20:32	13:20:32	2.0.10.252	2																	2	1	2					Mood		IntExpList		1	1	1	1	7				7	AffectGridProc				AffectGrid
Mood	10	1	<?xml version="1.0"?>\n<Clock xmlns:dt="urn:schemas-microsoft-com:datatypes"><Description dt:dt="string">E-Prime Primary Realtime Clock</Description><StartTime><Timestamp dt:dt="int">0</Timestamp><DateUtc dt:dt="string">2019-03-08T12:20:32Z</DateUtc></StartTime><FrequencyChanges><FrequencyChange><Frequency dt:dt="r8">3312675</Frequency><Timestamp dt:dt="r8">45711090583</Timestamp><Current dt:dt="r8">0</Current><DateUtc dt:dt="string">2019-03-08T12:20:32Z</DateUtc></FrequencyChange></FrequencyChanges></Clock>\n	Mood-10-1	60.004	1.0.0.399	1	-1532875084	Professional	2.0.10.356	2.0.10.356	03-08-2019	8-3-2019 12:20:32	13:20:32	2.0.10.252	3	2	A relative of yours, with whom you’ve shared a close relationship, has been diagnosed with early-onset Alzheimers. Whereas (s)he used to be full of life and wisdom, you can see the passion fade away as (s)he forgets more and more, until eventually (s)he doesn’t even remember you and the great times you’ve had anymore. 	1	1	1	S	2	1		0	1	209173	600041		0	0				sad	Before we continue to the task, I, the experimenter, would like to assure you that at the end of the task, I will make sure you get back to a normal mood.	Are you still a bit down? The experiment leader has a nice little surprise for you. Hopefully it will make you feel a little better.  	a sad	MoodProc	?	ExpList	Music														
Mood	10	1	<?xml version="1.0"?>\n<Clock xmlns:dt="urn:schemas-microsoft-com:datatypes"><Description dt:dt="string">E-Prime Primary Realtime Clock</Description><StartTime><Timestamp dt:dt="int">0</Timestamp><DateUtc dt:dt="string">2019-03-08T12:20:32Z</DateUtc></StartTime><FrequencyChanges><FrequencyChange><Frequency dt:dt="r8">3312675</Frequency><Timestamp dt:dt="r8">45711090583</Timestamp><Current dt:dt="r8">0</Current><DateUtc dt:dt="string">2019-03-08T12:20:32Z</DateUtc></FrequencyChange></FrequencyChanges></Clock>\n	Mood-10-1	60.004	1.0.0.399	1	-1532875084	Professional	2.0.10.356	2.0.10.356	03-08-2019	8-3-2019 12:20:32	13:20:32	2.0.10.252	4			2	1	2																			Mood	a	ExpList	Mood2	1	1	2	2	4				1	AffectGridProc				AffectGrid
Mood	10	1	<?xml version="1.0"?>\n<Clock xmlns:dt="urn:schemas-microsoft-com:datatypes"><Description dt:dt="string">E-Prime Primary Realtime Clock</Description><StartTime><Timestamp dt:dt="int">0</Timestamp><DateUtc dt:dt="string">2019-03-08T12:20:32Z</DateUtc></StartTime><FrequencyChanges><FrequencyChange><Frequency dt:dt="r8">3312675</Frequency><Timestamp dt:dt="r8">45711090583</Timestamp><Current dt:dt="r8">0</Current><DateUtc dt:dt="string">2019-03-08T12:20:32Z</DateUtc></FrequencyChange></FrequencyChanges></Clock>\n	Mood-10-1	60.004	1.0.0.399	1	-1532875084	Professional	2.0.10.356	2.0.10.356	03-08-2019	8-3-2019 12:20:32	13:20:32	2.0.10.252	5			3	1	3																			MoodQuest	?	ExpList	Quest	1					1	1	1		MoodQuestProc	How difficult did you find it to get into the mood, on a scale of 1 (not at all) to 8 (very much)?	1	16347	MoodQuestions
Mood	10	1	<?xml version="1.0"?>\n<Clock xmlns:dt="urn:schemas-microsoft-com:datatypes"><Description dt:dt="string">E-Prime Primary Realtime Clock</Description><StartTime><Timestamp dt:dt="int">0</Timestamp><DateUtc dt:dt="string">2019-03-08T12:20:32Z</DateUtc></StartTime><FrequencyChanges><FrequencyChange><Frequency dt:dt="r8">3312675</Frequency><Timestamp dt:dt="r8">45711090583</Timestamp><Current dt:dt="r8">0</Current><DateUtc dt:dt="string">2019-03-08T12:20:32Z</DateUtc></FrequencyChange></FrequencyChanges></Clock>\n	Mood-10-1	60.004	1.0.0.399	1	-1532875084	Professional	2.0.10.356	2.0.10.356	03-08-2019	8-3-2019 12:20:32	13:20:32	2.0.10.252	5			3	1	3																			MoodQuest	?	ExpList	Quest	2					2	1	2		MoodQuestProc	How much did the example story help to get into the mood, on a scale of 1 (not at all) to 8 (very much)?	3	10833	MoodQuestions
Mood	10	1	<?xml version="1.0"?>\n<Clock xmlns:dt="urn:schemas-microsoft-com:datatypes"><Description dt:dt="string">E-Prime Primary Realtime Clock</Description><StartTime><Timestamp dt:dt="int">0</Timestamp><DateUtc dt:dt="string">2019-03-08T12:20:32Z</DateUtc></StartTime><FrequencyChanges><FrequencyChange><Frequency dt:dt="r8">3312675</Frequency><Timestamp dt:dt="r8">45711090583</Timestamp><Current dt:dt="r8">0</Current><DateUtc dt:dt="string">2019-03-08T12:20:32Z</DateUtc></FrequencyChange></FrequencyChanges></Clock>\n	Mood-10-1	60.004	1.0.0.399	1	-1532875084	Professional	2.0.10.356	2.0.10.356	03-08-2019	8-3-2019 12:20:32	13:20:32	2.0.10.252	5			3	1	3																			MoodQuest	?	ExpList	Quest	3					3	1	3		MoodQuestProc	How much did the music help to get into the mood, on a scale of 1 (not at all) to 8 (very much)?	7	7364	MoodQuestions
Mood	10	1	<?xml version="1.0"?>\n<Clock xmlns:dt="urn:schemas-microsoft-com:datatypes"><Description dt:dt="string">E-Prime Primary Realtime Clock</Description><StartTime><Timestamp dt:dt="int">0</Timestamp><DateUtc dt:dt="string">2019-03-08T12:20:32Z</DateUtc></StartTime><FrequencyChanges><FrequencyChange><Frequency dt:dt="r8">3312675</Frequency><Timestamp dt:dt="r8">45711090583</Timestamp><Current dt:dt="r8">0</Current><DateUtc dt:dt="string">2019-03-08T12:20:32Z</DateUtc></FrequencyChange></FrequencyChanges></Clock>\n	Mood-10-1	60.004	1.0.0.399	1	-1532875084	Professional	2.0.10.356	2.0.10.356	03-08-2019	8-3-2019 12:20:32	13:20:32	2.0.10.252	5			3	1	3																			MoodQuest	?	ExpList	Quest	4					4	1	4		MoodQuestProc	How much did your own memory help to get into the mood, on a scale of 1 (not at all) to 8 (very much)?	8	5937	MoodQuestions
Mood	10	1	<?xml version="1.0"?>\n<Clock xmlns:dt="urn:schemas-microsoft-com:datatypes"><Description dt:dt="string">E-Prime Primary Realtime Clock</Description><StartTime><Timestamp dt:dt="int">0</Timestamp><DateUtc dt:dt="string">2019-03-08T12:20:32Z</DateUtc></StartTime><FrequencyChanges><FrequencyChange><Frequency dt:dt="r8">3312675</Frequency><Timestamp dt:dt="r8">45711090583</Timestamp><Current dt:dt="r8">0</Current><DateUtc dt:dt="string">2019-03-08T12:20:32Z</DateUtc></FrequencyChange></FrequencyChanges></Clock>\n	Mood-10-1	60.004	1.0.0.399	1	-1532875084	Professional	2.0.10.356	2.0.10.356	03-08-2019	8-3-2019 12:20:32	13:20:32	2.0.10.252	6			4	1	4																			Mood	a	ExpList	Mood3	1	1	3	3	4				1	AffectGridProc				AffectGrid
Mood	100	1	<?xml version="1.0"?>\n<Clock xmlns:dt="urn:schemas-microsoft-com:datatypes"><Description dt:dt="string">E-Prime Primary Realtime Clock</Description><StartTime><Timestamp dt:dt="int">0</Timestamp><DateUtc dt:dt="string">2019-03-15T08:13:28Z</DateUtc></StartTime><FrequencyChanges><FrequencyChange><Frequency dt:dt="r8">3312695</Frequency><Timestamp dt:dt="r8">4284402960</Timestamp><Current dt:dt="r8">0</Current><DateUtc dt:dt="string">2019-03-15T08:13:28Z</DateUtc></FrequencyChange></FrequencyChanges></Clock>\n	Mood-100-1	60.005	1.0.0.399	1	-9919126	Professional	2.0.10.356	2.0.10.356	03-15-2019	15-3-2019 8:13:28	09:13:28	2.0.10.252	1	2	A relative of yours, with whom you’ve shared a close relationship, has been diagnosed with early-onset Alzheimers. Whereas (s)he used to be full of life and wisdom, you can see the passion fade away as (s)he forgets more and more, until eventually (s)he doesn’t even remember you and the great times you’ve had anymore. 				S	2										1	1	1	sad	Before we continue to the task, I, the experimenter, would like to assure you that at the end of the task, I will make sure you get back to a normal mood.	Are you still a bit down? The experiment leader has a nice little surprise for you. Hopefully it will make you feel a little better.  	a sad	InitializeProc		IntExpList															
Mood	100	1	<?xml version="1.0"?>\n<Clock xmlns:dt="urn:schemas-microsoft-com:datatypes"><Description dt:dt="string">E-Prime Primary Realtime Clock</Description><StartTime><Timestamp dt:dt="int">0</Timestamp><DateUtc dt:dt="string">2019-03-15T08:13:28Z</DateUtc></StartTime><FrequencyChanges><FrequencyChange><Frequency dt:dt="r8">3312695</Frequency><Timestamp dt:dt="r8">4284402960</Timestamp><Current dt:dt="r8">0</Current><DateUtc dt:dt="string">2019-03-15T08:13:28Z</DateUtc></FrequencyChange></FrequencyChanges></Clock>\n	Mood-100-1	60.005	1.0.0.399	1	-9919126	Professional	2.0.10.356	2.0.10.356	03-15-2019	15-3-2019 8:13:28	09:13:28	2.0.10.252	2																	2	1	2					Mood		IntExpList		1	1	1	1	5				6	AffectGridProc				AffectGrid
Mood	100	1	<?xml version="1.0"?>\n<Clock xmlns:dt="urn:schemas-microsoft-com:datatypes"><Description dt:dt="string">E-Prime Primary Realtime Clock</Description><StartTime><Timestamp dt:dt="int">0</Timestamp><DateUtc dt:dt="string">2019-03-15T08:13:28Z</DateUtc></StartTime><FrequencyChanges><FrequencyChange><Frequency dt:dt="r8">3312695</Frequency><Timestamp dt:dt="r8">4284402960</Timestamp><Current dt:dt="r8">0</Current><DateUtc dt:dt="string">2019-03-15T08:13:28Z</DateUtc></FrequencyChange></FrequencyChanges></Clock>\n	Mood-100-1	60.005	1.0.0.399	1	-9919126	Professional	2.0.10.356	2.0.10.356	03-15-2019	15-3-2019 8:13:28	09:13:28	2.0.10.252	3	2	A relative of yours, with whom you’ve shared a close relationship, has been diagnosed with early-onset Alzheimers. Whereas (s)he used to be full of life and wisdom, you can see the passion fade away as (s)he forgets more and more, until eventually (s)he doesn’t even remember you and the great times you’ve had anymore. 	1	1	1	S	2	1		0	1	71411	600037		0	0				sad	Before we continue to the task, I, the experimenter, would like to assure you that at the end of the task, I will make sure you get back to a normal mood.	Are you still a bit down? The experiment leader has a nice little surprise for you. Hopefully it will make you feel a little better.  	a sad	MoodProc	?	ExpList	Music														
Mood	100	1	<?xml version="1.0"?>\n<Clock xmlns:dt="urn:schemas-microsoft-com:datatypes"><Description dt:dt="string">E-Prime Primary Realtime Clock</Description><StartTime><Timestamp dt:dt="int">0</Timestamp><DateUtc dt:dt="string">2019-03-15T08:13:28Z</DateUtc></StartTime><FrequencyChanges><FrequencyChange><Frequency dt:dt="r8">3312695</Frequency><Timestamp dt:dt="r8">4284402960</Timestamp><Current dt:dt="r8">0</Current><DateUtc dt:dt="string">2019-03-15T08:13:28Z</DateUtc></FrequencyChange></FrequencyChanges></Clock>\n	Mood-100-1	60.005	1.0.0.399	1	-9919126	Professional	2.0.10.356	2.0.10.356	03-15-2019	15-3-2019 8:13:28	09:13:28	2.0.10.252	4			2	1	2																			Mood	a	ExpList	Mood2	1	1	2	2	4				2	AffectGridProc				AffectGrid
Mood	100	1	<?xml version="1.0"?>\n<Clock xmlns:dt="urn:schemas-microsoft-com:datatypes"><Description dt:dt="string">E-Prime Primary Realtime Clock</Description><StartTime><Timestamp dt:dt="int">0</Timestamp><DateUtc dt:dt="string">2019-03-15T08:13:28Z</DateUtc></StartTime><FrequencyChanges><FrequencyChange><Frequency dt:dt="r8">3312695</Frequency><Timestamp dt:dt="r8">4284402960</Timestamp><Current dt:dt="r8">0</Current><DateUtc dt:dt="string">2019-03-15T08:13:28Z</DateUtc></FrequencyChange></FrequencyChanges></Clock>\n	Mood-100-1	60.005	1.0.0.399	1	-9919126	Professional	2.0.10.356	2.0.10.356	03-15-2019	15-3-2019 8:13:28	09:13:28	2.0.10.252	5			3	1	3																			MoodQuest	?	ExpList	Quest	1					1	1	1		MoodQuestProc	How difficult did you find it to get into the mood, on a scale of 1 (not at all) to 8 (very much)?	5	12482	MoodQuestions
Mood	100	1	<?xml version="1.0"?>\n<Clock xmlns:dt="urn:schemas-microsoft-com:datatypes"><Description dt:dt="string">E-Prime Primary Realtime Clock</Description><StartTime><Timestamp dt:dt="int">0</Timestamp><DateUtc dt:dt="string">2019-03-15T08:13:28Z</DateUtc></StartTime><FrequencyChanges><FrequencyChange><Frequency dt:dt="r8">3312695</Frequency><Timestamp dt:dt="r8">4284402960</Timestamp><Current dt:dt="r8">0</Current><DateUtc dt:dt="string">2019-03-15T08:13:28Z</DateUtc></FrequencyChange></FrequencyChanges></Clock>\n	Mood-100-1	60.005	1.0.0.399	1	-9919126	Professional	2.0.10.356	2.0.10.356	03-15-2019	15-3-2019 8:13:28	09:13:28	2.0.10.252	5			3	1	3																			MoodQuest	?	ExpList	Quest	2					2	1	2		MoodQuestProc	How much did the example story help to get into the mood, on a scale of 1 (not at all) to 8 (very much)?	6	9907	MoodQuestions
Mood	100	1	<?xml version="1.0"?>\n<Clock xmlns:dt="urn:schemas-microsoft-com:datatypes"><Description dt:dt="string">E-Prime Primary Realtime Clock</Description><StartTime><Timestamp dt:dt="int">0</Timestamp><DateUtc dt:dt="string">2019-03-15T08:13:28Z</DateUtc></StartTime><FrequencyChanges><FrequencyChange><Frequency dt:dt="r8">3312695</Frequency><Timestamp dt:dt="r8">4284402960</Timestamp><Current dt:dt="r8">0</Current><DateUtc dt:dt="string">2019-03-15T08:13:28Z</DateUtc></FrequencyChange></FrequencyChanges></Clock>\n	Mood-100-1	60.005	1.0.0.399	1	-9919126	Professional	2.0.10.356	2.0.10.356	03-15-2019	15-3-2019 8:13:28	09:13:28	2.0.10.252	5			3	1	3																			MoodQuest	?	ExpList	Quest	3					3	1	3		MoodQuestProc	How much did the music help to get into the mood, on a scale of 1 (not at all) to 8 (very much)?	7	2003	MoodQuestions
Mood	100	1	<?xml version="1.0"?>\n<Clock xmlns:dt="urn:schemas-microsoft-com:datatypes"><Description dt:dt="string">E-Prime Primary Realtime Clock</Description><StartTime><Timestamp dt:dt="int">0</Timestamp><DateUtc dt:dt="string">2019-03-15T08:13:28Z</DateUtc></StartTime><FrequencyChanges><FrequencyChange><Frequency dt:dt="r8">3312695</Frequency><Timestamp dt:dt="r8">4284402960</Timestamp><Current dt:dt="r8">0</Current><DateUtc dt:dt="string">2019-03-15T08:13:28Z</DateUtc></FrequencyChange></FrequencyChanges></Clock>\n	Mood-100-1	60.005	1.0.0.399	1	-9919126	Professional	2.0.10.356	2.0.10.356	03-15-2019	15-3-2019 8:13:28	09:13:28	2.0.10.252	5			3	1	3																			MoodQuest	?	ExpList	Quest	4					4	1	4		MoodQuestProc	How much did your own memory help to get into the mood, on a scale of 1 (not at all) to 8 (very much)?	7	3542	MoodQuestions
Mood	100	1	<?xml version="1.0"?>\n<Clock xmlns:dt="urn:schemas-microsoft-com:datatypes"><Description dt:dt="string">E-Prime Primary Realtime Clock</Description><StartTime><Timestamp dt:dt="int">0</Timestamp><DateUtc dt:dt="string">2019-03-15T08:13:28Z</DateUtc></StartTime><FrequencyChanges><FrequencyChange><Frequency dt:dt="r8">3312695</Frequency><Timestamp dt:dt="r8">4284402960</Timestamp><Current dt:dt="r8">0</Current><DateUtc dt:dt="string">2019-03-15T08:13:28Z</DateUtc></FrequencyChange></FrequencyChanges></Clock>\n	Mood-100-1	60.005	1.0.0.399	1	-9919126	Professional	2.0.10.356	2.0.10.356	03-15-2019	15-3-2019 8:13:28	09:13:28	2.0.10.252	6			4	1	4																			Mood	a	ExpList	Mood3	1	1	3	3	4				2	AffectGridProc				AffectGrid
Mood	101	1	<?xml version="1.0"?>\n<Clock xmlns:dt="urn:schemas-microsoft-com:datatypes"><Description dt:dt="string">E-Prime Primary Realtime Clock</Description><StartTime><Timestamp dt:dt="int">0</Timestamp><DateUtc dt:dt="string">2019-03-18T09:12:26Z</DateUtc></StartTime><FrequencyChanges><FrequencyChange><Frequency dt:dt="r8">3312705</Frequency><Timestamp dt:dt="r8">19152112246</Timestamp><Current dt:dt="r8">0</Current><DateUtc dt:dt="string">2019-03-18T09:12:26Z</DateUtc></FrequencyChange></FrequencyChanges></Clock>\n	Mood-101-1	60.005	1.0.0.399	1	1972915098	Professional	2.0.10.356	2.0.10.356	03-18-2019	18-3-2019 9:12:27	10:12:27	2.0.10.252	1	1	It’s your birthday and your friends throw you an amazing surprise party! All of your favorite people are there, and they are having a great time together with you, doing the best imaginable birthday activities. 				E	1										1	1	1	excited			an excited	InitializeProc		IntExpList															
Mood	101	1	<?xml version="1.0"?>\n<Clock xmlns:dt="urn:schemas-microsoft-com:datatypes"><Description dt:dt="string">E-Prime Primary Realtime Clock</Description><StartTime><Timestamp dt:dt="int">0</Timestamp><DateUtc dt:dt="string">2019-03-18T09:12:26Z</DateUtc></StartTime><FrequencyChanges><FrequencyChange><Frequency dt:dt="r8">3312705</Frequency><Timestamp dt:dt="r8">19152112246</Timestamp><Current dt:dt="r8">0</Current><DateUtc dt:dt="string">2019-03-18T09:12:26Z</DateUtc></FrequencyChange></FrequencyChanges></Clock>\n	Mood-101-1	60.005	1.0.0.399	1	1972915098	Professional	2.0.10.356	2.0.10.356	03-18-2019	18-3-2019 9:12:27	10:12:27	2.0.10.252	2																	2	1	2					Mood		IntExpList		1	1	1	1	7				6	AffectGridProc				AffectGrid
Mood	101	1	<?xml version="1.0"?>\n<Clock xmlns:dt="urn:schemas-microsoft-com:datatypes"><Description dt:dt="string">E-Prime Primary Realtime Clock</Description><StartTime><Timestamp dt:dt="int">0</Timestamp><DateUtc dt:dt="string">2019-03-18T09:12:26Z</DateUtc></StartTime><FrequencyChanges><FrequencyChange><Frequency dt:dt="r8">3312705</Frequency><Timestamp dt:dt="r8">19152112246</Timestamp><Current dt:dt="r8">0</Current><DateUtc dt:dt="string">2019-03-18T09:12:26Z</DateUtc></FrequencyChange></FrequencyChanges></Clock>\n	Mood-101-1	60.005	1.0.0.399	1	1972915098	Professional	2.0.10.356	2.0.10.356	03-18-2019	18-3-2019 9:12:27	10:12:27	2.0.10.252	3	1	It’s your birthday and your friends throw you an amazing surprise party! All of your favorite people are there, and they are having a great time together with you, doing the best imaginable birthday activities. 	1	1	1	E	1	1		0	0	152657	600036		0	0				excited			an excited	MoodProc	?	ExpList	Music														
Mood	101	1	<?xml version="1.0"?>\n<Clock xmlns:dt="urn:schemas-microsoft-com:datatypes"><Description dt:dt="string">E-Prime Primary Realtime Clock</Description><StartTime><Timestamp dt:dt="int">0</Timestamp><DateUtc dt:dt="string">2019-03-18T09:12:26Z</DateUtc></StartTime><FrequencyChanges><FrequencyChange><Frequency dt:dt="r8">3312705</Frequency><Timestamp dt:dt="r8">19152112246</Timestamp><Current dt:dt="r8">0</Current><DateUtc dt:dt="string">2019-03-18T09:12:26Z</DateUtc></FrequencyChange></FrequencyChanges></Clock>\n	Mood-101-1	60.005	1.0.0.399	1	1972915098	Professional	2.0.10.356	2.0.10.356	03-18-2019	18-3-2019 9:12:27	10:12:27	2.0.10.252	4			2	1	2																			Mood	a	ExpList	Mood2	1	1	2	2	8				8	AffectGridProc				AffectGrid
Mood	101	1	<?xml version="1.0"?>\n<Clock xmlns:dt="urn:schemas-microsoft-com:datatypes"><Description dt:dt="string">E-Prime Primary Realtime Clock</Description><StartTime><Timestamp dt:dt="int">0</Timestamp><DateUtc dt:dt="string">2019-03-18T09:12:26Z</DateUtc></StartTime><FrequencyChanges><FrequencyChange><Frequency dt:dt="r8">3312705</Frequency><Timestamp dt:dt="r8">19152112246</Timestamp><Current dt:dt="r8">0</Current><DateUtc dt:dt="string">2019-03-18T09:12:26Z</DateUtc></FrequencyChange></FrequencyChanges></Clock>\n	Mood-101-1	60.005	1.0.0.399	1	1972915098	Professional	2.0.10.356	2.0.10.356	03-18-2019	18-3-2019 9:12:27	10:12:27	2.0.10.252	5			3	1	3																			MoodQuest	?	ExpList	Quest	1					1	1	1		MoodQuestProc	How difficult did you find it to get into the mood, on a scale of 1 (not at all) to 8 (very much)?	2	5089	MoodQuestions
Mood	101	1	<?xml version="1.0"?>\n<Clock xmlns:dt="urn:schemas-microsoft-com:datatypes"><Description dt:dt="string">E-Prime Primary Realtime Clock</Description><StartTime><Timestamp dt:dt="int">0</Timestamp><DateUtc dt:dt="string">2019-03-18T09:12:26Z</DateUtc></StartTime><FrequencyChanges><FrequencyChange><Frequency dt:dt="r8">3312705</Frequency><Timestamp dt:dt="r8">19152112246</Timestamp><Current dt:dt="r8">0</Current><DateUtc dt:dt="string">2019-03-18T09:12:26Z</DateUtc></FrequencyChange></FrequencyChanges></Clock>\n	Mood-101-1	60.005	1.0.0.399	1	1972915098	Professional	2.0.10.356	2.0.10.356	03-18-2019	18-3-2019 9:12:27	10:12:27	2.0.10.252	5			3	1	3																			MoodQuest	?	ExpList	Quest	2					2	1	2		MoodQuestProc	How much did the example story help to get into the mood, on a scale of 1 (not at all) to 8 (very much)?	5	4289	MoodQuestions
Mood	101	1	<?xml version="1.0"?>\n<Clock xmlns:dt="urn:schemas-microsoft-com:datatypes"><Description dt:dt="string">E-Prime Primary Realtime Clock</Description><StartTime><Timestamp dt:dt="int">0</Timestamp><DateUtc dt:dt="string">2019-03-18T09:12:26Z</DateUtc></StartTime><FrequencyChanges><FrequencyChange><Frequency dt:dt="r8">3312705</Frequency><Timestamp dt:dt="r8">19152112246</Timestamp><Current dt:dt="r8">0</Current><DateUtc dt:dt="string">2019-03-18T09:12:26Z</DateUtc></FrequencyChange></FrequencyChanges></Clock>\n	Mood-101-1	60.005	1.0.0.399	1	1972915098	Professional	2.0.10.356	2.0.10.356	03-18-2019	18-3-2019 9:12:27	10:12:27	2.0.10.252	5			3	1	3																			MoodQuest	?	ExpList	Quest	3					3	1	3		MoodQuestProc	How much did the music help to get into the mood, on a scale of 1 (not at all) to 8 (very much)?	6	4593	MoodQuestions
Mood	101	1	<?xml version="1.0"?>\n<Clock xmlns:dt="urn:schemas-microsoft-com:datatypes"><Description dt:dt="string">E-Prime Primary Realtime Clock</Description><StartTime><Timestamp dt:dt="int">0</Timestamp><DateUtc dt:dt="string">2019-03-18T09:12:26Z</DateUtc></StartTime><FrequencyChanges><FrequencyChange><Frequency dt:dt="r8">3312705</Frequency><Timestamp dt:dt="r8">19152112246</Timestamp><Current dt:dt="r8">0</Current><DateUtc dt:dt="string">2019-03-18T09:12:26Z</DateUtc></FrequencyChange></FrequencyChanges></Clock>\n	Mood-101-1	60.005	1.0.0.399	1	1972915098	Professional	2.0.10.356	2.0.10.356	03-18-2019	18-3-2019 9:12:27	10:12:27	2.0.10.252	5			3	1	3																			MoodQuest	?	ExpList	Quest	4					4	1	4		MoodQuestProc	How much did your own memory help to get into the mood, on a scale of 1 (not at all) to 8 (very much)?	8	3885	MoodQuestions
Mood	101	1	<?xml version="1.0"?>\n<Clock xmlns:dt="urn:schemas-microsoft-com:datatypes"><Description dt:dt="string">E-Prime Primary Realtime Clock</Description><StartTime><Timestamp dt:dt="int">0</Timestamp><DateUtc dt:dt="string">2019-03-18T09:12:26Z</DateUtc></StartTime><FrequencyChanges><FrequencyChange><Frequency dt:dt="r8">3312705</Frequency><Timestamp dt:dt="r8">19152112246</Timestamp><Current dt:dt="r8">0</Current><DateUtc dt:dt="string">2019-03-18T09:12:26Z</DateUtc></FrequencyChange></FrequencyChanges></Clock>\n	Mood-101-1	60.005	1.0.0.399	1	1972915098	Professional	2.0.10.356	2.0.10.356	03-18-2019	18-3-2019 9:12:27	10:12:27	2.0.10.252	6			4	1	4																			Mood	a	ExpList	Mood3	1	1	3	3	6				8	AffectGridProc				AffectGrid
Mood	102	1	<?xml version="1.0"?>\n<Clock xmlns:dt="urn:schemas-microsoft-com:datatypes"><Description dt:dt="string">E-Prime Primary Realtime Clock</Description><StartTime><Timestamp dt:dt="int">0</Timestamp><DateUtc dt:dt="string">2019-03-18T11:14:38Z</DateUtc></StartTime><FrequencyChanges><FrequencyChange><Frequency dt:dt="r8">3312734</Frequency><Timestamp dt:dt="r8">43493610311</Timestamp><Current dt:dt="r8">0</Current><DateUtc dt:dt="string">2019-03-18T11:14:38Z</DateUtc></FrequencyChange></FrequencyChanges></Clock>\n	Mood-102-1	60.005	1.0.0.399	1	544600150	Professional	2.0.10.356	2.0.10.356	03-18-2019	18-3-2019 11:14:38	12:14:38	2.0.10.252	1	2	A relative of yours, with whom you’ve shared a close relationship, has been diagnosed with early-onset Alzheimers. Whereas (s)he used to be full of life and wisdom, you can see the passion fade away as (s)he forgets more and more, until eventually (s)he doesn’t even remember you and the great times you’ve had anymore. 				S	2										1	1	1	sad	Before we continue to the task, I, the experimenter, would like to assure you that at the end of the task, I will make sure you get back to a normal mood.	Are you still a bit down? The experiment leader has a nice little surprise for you. Hopefully it will make you feel a little better.  	a sad	InitializeProc		IntExpList															
Mood	102	1	<?xml version="1.0"?>\n<Clock xmlns:dt="urn:schemas-microsoft-com:datatypes"><Description dt:dt="string">E-Prime Primary Realtime Clock</Description><StartTime><Timestamp dt:dt="int">0</Timestamp><DateUtc dt:dt="string">2019-03-18T11:14:38Z</DateUtc></StartTime><FrequencyChanges><FrequencyChange><Frequency dt:dt="r8">3312734</Frequency><Timestamp dt:dt="r8">43493610311</Timestamp><Current dt:dt="r8">0</Current><DateUtc dt:dt="string">2019-03-18T11:14:38Z</DateUtc></FrequencyChange></FrequencyChanges></Clock>\n	Mood-102-1	60.005	1.0.0.399	1	544600150	Professional	2.0.10.356	2.0.10.356	03-18-2019	18-3-2019 11:14:38	12:14:38	2.0.10.252	2																	2	1	2					Mood		IntExpList		1	1	1	1	7				5	AffectGridProc				AffectGrid
Mood	102	1	<?xml version="1.0"?>\n<Clock xmlns:dt="urn:schemas-microsoft-com:datatypes"><Description dt:dt="string">E-Prime Primary Realtime Clock</Description><StartTime><Timestamp dt:dt="int">0</Timestamp><DateUtc dt:dt="string">2019-03-18T11:14:38Z</DateUtc></StartTime><FrequencyChanges><FrequencyChange><Frequency dt:dt="r8">3312734</Frequency><Timestamp dt:dt="r8">43493610311</Timestamp><Current dt:dt="r8">0</Current><DateUtc dt:dt="string">2019-03-18T11:14:38Z</DateUtc></FrequencyChange></FrequencyChanges></Clock>\n	Mood-102-1	60.005	1.0.0.399	1	544600150	Professional	2.0.10.356	2.0.10.356	03-18-2019	18-3-2019 11:14:38	12:14:38	2.0.10.252	3	2	A relative of yours, with whom you’ve shared a close relationship, has been diagnosed with early-onset Alzheimers. Whereas (s)he used to be full of life and wisdom, you can see the passion fade away as (s)he forgets more and more, until eventually (s)he doesn’t even remember you and the great times you’ve had anymore. 	1	1	1	S	2	1		0	0	97887	600047		0	0				sad	Before we continue to the task, I, the experimenter, would like to assure you that at the end of the task, I will make sure you get back to a normal mood.	Are you still a bit down? The experiment leader has a nice little surprise for you. Hopefully it will make you feel a little better.  	a sad	MoodProc	?	ExpList	Music														
Mood	102	1	<?xml version="1.0"?>\n<Clock xmlns:dt="urn:schemas-microsoft-com:datatypes"><Description dt:dt="string">E-Prime Primary Realtime Clock</Description><StartTime><Timestamp dt:dt="int">0</Timestamp><DateUtc dt:dt="string">2019-03-18T11:14:38Z</DateUtc></StartTime><FrequencyChanges><FrequencyChange><Frequency dt:dt="r8">3312734</Frequency><Timestamp dt:dt="r8">43493610311</Timestamp><Current dt:dt="r8">0</Current><DateUtc dt:dt="string">2019-03-18T11:14:38Z</DateUtc></FrequencyChange></FrequencyChanges></Clock>\n	Mood-102-1	60.005	1.0.0.399	1	544600150	Professional	2.0.10.356	2.0.10.356	03-18-2019	18-3-2019 11:14:38	12:14:38	2.0.10.252	4			2	1	2																			Mood	a	ExpList	Mood2	1	1	2	2	5				3	AffectGridProc				AffectGrid
Mood	102	1	<?xml version="1.0"?>\n<Clock xmlns:dt="urn:schemas-microsoft-com:datatypes"><Description dt:dt="string">E-Prime Primary Realtime Clock</Description><StartTime><Timestamp dt:dt="int">0</Timestamp><DateUtc dt:dt="string">2019-03-18T11:14:38Z</DateUtc></StartTime><FrequencyChanges><FrequencyChange><Frequency dt:dt="r8">3312734</Frequency><Timestamp dt:dt="r8">43493610311</Timestamp><Current dt:dt="r8">0</Current><DateUtc dt:dt="string">2019-03-18T11:14:38Z</DateUtc></FrequencyChange></FrequencyChanges></Clock>\n	Mood-102-1	60.005	1.0.0.399	1	544600150	Professional	2.0.10.356	2.0.10.356	03-18-2019	18-3-2019 11:14:38	12:14:38	2.0.10.252	5			3	1	3																			MoodQuest	?	ExpList	Quest	1					1	1	1		MoodQuestProc	How difficult did you find it to get into the mood, on a scale of 1 (not at all) to 8 (very much)?	3	6405	MoodQuestions
Mood	102	1	<?xml version="1.0"?>\n<Clock xmlns:dt="urn:schemas-microsoft-com:datatypes"><Description dt:dt="string">E-Prime Primary Realtime Clock</Description><StartTime><Timestamp dt:dt="int">0</Timestamp><DateUtc dt:dt="string">2019-03-18T11:14:38Z</DateUtc></StartTime><FrequencyChanges><FrequencyChange><Frequency dt:dt="r8">3312734</Frequency><Timestamp dt:dt="r8">43493610311</Timestamp><Current dt:dt="r8">0</Current><DateUtc dt:dt="string">2019-03-18T11:14:38Z</DateUtc></FrequencyChange></FrequencyChanges></Clock>\n	Mood-102-1	60.005	1.0.0.399	1	544600150	Professional	2.0.10.356	2.0.10.356	03-18-2019	18-3-2019 11:14:38	12:14:38	2.0.10.252	5			3	1	3																			MoodQuest	?	ExpList	Quest	2					2	1	2		MoodQuestProc	How much did the example story help to get into the mood, on a scale of 1 (not at all) to 8 (very much)?	1	4161	MoodQuestions
Mood	102	1	<?xml version="1.0"?>\n<Clock xmlns:dt="urn:schemas-microsoft-com:datatypes"><Description dt:dt="string">E-Prime Primary Realtime Clock</Description><StartTime><Timestamp dt:dt="int">0</Timestamp><DateUtc dt:dt="string">2019-03-18T11:14:38Z</DateUtc></StartTime><FrequencyChanges><FrequencyChange><Frequency dt:dt="r8">3312734</Frequency><Timestamp dt:dt="r8">43493610311</Timestamp><Current dt:dt="r8">0</Current><DateUtc dt:dt="string">2019-03-18T11:14:38Z</DateUtc></FrequencyChange></FrequencyChanges></Clock>\n	Mood-102-1	60.005	1.0.0.399	1	544600150	Professional	2.0.10.356	2.0.10.356	03-18-2019	18-3-2019 11:14:38	12:14:38	2.0.10.252	5			3	1	3																			MoodQuest	?	ExpList	Quest	3					3	1	3		MoodQuestProc	How much did the music help to get into the mood, on a scale of 1 (not at all) to 8 (very much)?	6	3837	MoodQuestions
Mood	102	1	<?xml version="1.0"?>\n<Clock xmlns:dt="urn:schemas-microsoft-com:datatypes"><Description dt:dt="string">E-Prime Primary Realtime Clock</Description><StartTime><Timestamp dt:dt="int">0</Timestamp><DateUtc dt:dt="string">2019-03-18T11:14:38Z</DateUtc></StartTime><FrequencyChanges><FrequencyChange><Frequency dt:dt="r8">3312734</Frequency><Timestamp dt:dt="r8">43493610311</Timestamp><Current dt:dt="r8">0</Current><DateUtc dt:dt="string">2019-03-18T11:14:38Z</DateUtc></FrequencyChange></FrequencyChanges></Clock>\n	Mood-102-1	60.005	1.0.0.399	1	544600150	Professional	2.0.10.356	2.0.10.356	03-18-2019	18-3-2019 11:14:38	12:14:38	2.0.10.252	5			3	1	3																			MoodQuest	?	ExpList	Quest	4					4	1	4		MoodQuestProc	How much did your own memory help to get into the mood, on a scale of 1 (not at all) to 8 (very much)?	8	4063	MoodQuestions
Mood	102	1	<?xml version="1.0"?>\n<Clock xmlns:dt="urn:schemas-microsoft-com:datatypes"><Description dt:dt="string">E-Prime Primary Realtime Clock</Description><StartTime><Timestamp dt:dt="int">0</Timestamp><DateUtc dt:dt="string">2019-03-18T11:14:38Z</DateUtc></StartTime><FrequencyChanges><FrequencyChange><Frequency dt:dt="r8">3312734</Frequency><Timestamp dt:dt="r8">43493610311</Timestamp><Current dt:dt="r8">0</Current><DateUtc dt:dt="string">2019-03-18T11:14:38Z</DateUtc></FrequencyChange></FrequencyChanges></Clock>\n	Mood-102-1	60.005	1.0.0.399	1	544600150	Professional	2.0.10.356	2.0.10.356	03-18-2019	18-3-2019 11:14:38	12:14:38	2.0.10.252	6			4	1	4																			Mood	a	ExpList	Mood3	1	1	3	3	5				3	AffectGridProc				AffectGrid
Mood	103	1	<?xml version="1.0"?>\n<Clock xmlns:dt="urn:schemas-microsoft-com:datatypes"><Description dt:dt="string">E-Prime Primary Realtime Clock</Description><StartTime><Timestamp dt:dt="int">0</Timestamp><DateUtc dt:dt="string">2019-03-19T12:41:22Z</DateUtc></StartTime><FrequencyChanges><FrequencyChange><Frequency dt:dt="r8">3312695</Frequency><Timestamp dt:dt="r8">56021320975</Timestamp><Current dt:dt="r8">0</Current><DateUtc dt:dt="string">2019-03-19T12:41:22Z</DateUtc></FrequencyChange></FrequencyChanges></Clock>\n	Mood-103-1	60.005	1.0.0.399	1	187394505	Professional	2.0.10.356	2.0.10.356	03-19-2019	19-3-2019 12:41:22	13:41:22	2.0.10.252	1	1	It’s your birthday and your friends throw you an amazing surprise party! All of your favorite people are there, and they are having a great time together with you, doing the best imaginable birthday activities. 				E	1										1	1	1	excited			an excited	InitializeProc		IntExpList															
Mood	103	1	<?xml version="1.0"?>\n<Clock xmlns:dt="urn:schemas-microsoft-com:datatypes"><Description dt:dt="string">E-Prime Primary Realtime Clock</Description><StartTime><Timestamp dt:dt="int">0</Timestamp><DateUtc dt:dt="string">2019-03-19T12:41:22Z</DateUtc></StartTime><FrequencyChanges><FrequencyChange><Frequency dt:dt="r8">3312695</Frequency><Timestamp dt:dt="r8">56021320975</Timestamp><Current dt:dt="r8">0</Current><DateUtc dt:dt="string">2019-03-19T12:41:22Z</DateUtc></FrequencyChange></FrequencyChanges></Clock>\n	Mood-103-1	60.005	1.0.0.399	1	187394505	Professional	2.0.10.356	2.0.10.356	03-19-2019	19-3-2019 12:41:22	13:41:22	2.0.10.252	2																	2	1	2					Mood		IntExpList		1	1	1	1	5				7	AffectGridProc				AffectGrid
Mood	103	1	<?xml version="1.0"?>\n<Clock xmlns:dt="urn:schemas-microsoft-com:datatypes"><Description dt:dt="string">E-Prime Primary Realtime Clock</Description><StartTime><Timestamp dt:dt="int">0</Timestamp><DateUtc dt:dt="string">2019-03-19T12:41:22Z</DateUtc></StartTime><FrequencyChanges><FrequencyChange><Frequency dt:dt="r8">3312695</Frequency><Timestamp dt:dt="r8">56021320975</Timestamp><Current dt:dt="r8">0</Current><DateUtc dt:dt="string">2019-03-19T12:41:22Z</DateUtc></FrequencyChange></FrequencyChanges></Clock>\n	Mood-103-1	60.005	1.0.0.399	1	187394505	Professional	2.0.10.356	2.0.10.356	03-19-2019	19-3-2019 12:41:22	13:41:22	2.0.10.252	3	1	It’s your birthday and your friends throw you an amazing surprise party! All of your favorite people are there, and they are having a great time together with you, doing the best imaginable birthday activities. 	1	1	1	E	1	1		0	16	127996	600038		0	0				excited			an excited	MoodProc	?	ExpList	Music														
Mood	103	1	<?xml version="1.0"?>\n<Clock xmlns:dt="urn:schemas-microsoft-com:datatypes"><Description dt:dt="string">E-Prime Primary Realtime Clock</Description><StartTime><Timestamp dt:dt="int">0</Timestamp><DateUtc dt:dt="string">2019-03-19T12:41:22Z</DateUtc></StartTime><FrequencyChanges><FrequencyChange><Frequency dt:dt="r8">3312695</Frequency><Timestamp dt:dt="r8">56021320975</Timestamp><Current dt:dt="r8">0</Current><DateUtc dt:dt="string">2019-03-19T12:41:22Z</DateUtc></FrequencyChange></FrequencyChanges></Clock>\n	Mood-103-1	60.005	1.0.0.399	1	187394505	Professional	2.0.10.356	2.0.10.356	03-19-2019	19-3-2019 12:41:22	13:41:22	2.0.10.252	4			2	1	2																			Mood	a	ExpList	Mood2	1	1	2	2	8				8	AffectGridProc				AffectGrid
Mood	103	1	<?xml version="1.0"?>\n<Clock xmlns:dt="urn:schemas-microsoft-com:datatypes"><Description dt:dt="string">E-Prime Primary Realtime Clock</Description><StartTime><Timestamp dt:dt="int">0</Timestamp><DateUtc dt:dt="string">2019-03-19T12:41:22Z</DateUtc></StartTime><FrequencyChanges><FrequencyChange><Frequency dt:dt="r8">3312695</Frequency><Timestamp dt:dt="r8">56021320975</Timestamp><Current dt:dt="r8">0</Current><DateUtc dt:dt="string">2019-03-19T12:41:22Z</DateUtc></FrequencyChange></FrequencyChanges></Clock>\n	Mood-103-1	60.005	1.0.0.399	1	187394505	Professional	2.0.10.356	2.0.10.356	03-19-2019	19-3-2019 12:41:22	13:41:22	2.0.10.252	5			3	1	3																			MoodQuest	?	ExpList	Quest	1					1	1	1		MoodQuestProc	How difficult did you find it to get into the mood, on a scale of 1 (not at all) to 8 (very much)?	4	12992	MoodQuestions
Mood	103	1	<?xml version="1.0"?>\n<Clock xmlns:dt="urn:schemas-microsoft-com:datatypes"><Description dt:dt="string">E-Prime Primary Realtime Clock</Description><StartTime><Timestamp dt:dt="int">0</Timestamp><DateUtc dt:dt="string">2019-03-19T12:41:22Z</DateUtc></StartTime><FrequencyChanges><FrequencyChange><Frequency dt:dt="r8">3312695</Frequency><Timestamp dt:dt="r8">56021320975</Timestamp><Current dt:dt="r8">0</Current><DateUtc dt:dt="string">2019-03-19T12:41:22Z</DateUtc></FrequencyChange></FrequencyChanges></Clock>\n	Mood-103-1	60.005	1.0.0.399	1	187394505	Professional	2.0.10.356	2.0.10.356	03-19-2019	19-3-2019 12:41:22	13:41:22	2.0.10.252	5			3	1	3																			MoodQuest	?	ExpList	Quest	2					2	1	2		MoodQuestProc	How much did the example story help to get into the mood, on a scale of 1 (not at all) to 8 (very much)?	6	8756	MoodQuestions
Mood	103	1	<?xml version="1.0"?>\n<Clock xmlns:dt="urn:schemas-microsoft-com:datatypes"><Description dt:dt="string">E-Prime Primary Realtime Clock</Description><StartTime><Timestamp dt:dt="int">0</Timestamp><DateUtc dt:dt="string">2019-03-19T12:41:22Z</DateUtc></StartTime><FrequencyChanges><FrequencyChange><Frequency dt:dt="r8">3312695</Frequency><Timestamp dt:dt="r8">56021320975</Timestamp><Current dt:dt="r8">0</Current><DateUtc dt:dt="string">2019-03-19T12:41:22Z</DateUtc></FrequencyChange></FrequencyChanges></Clock>\n	Mood-103-1	60.005	1.0.0.399	1	187394505	Professional	2.0.10.356	2.0.10.356	03-19-2019	19-3-2019 12:41:22	13:41:22	2.0.10.252	5			3	1	3																			MoodQuest	?	ExpList	Quest	3					3	1	3		MoodQuestProc	How much did the music help to get into the mood, on a scale of 1 (not at all) to 8 (very much)?	7	5058	MoodQuestions
Mood	103	1	<?xml version="1.0"?>\n<Clock xmlns:dt="urn:schemas-microsoft-com:datatypes"><Description dt:dt="string">E-Prime Primary Realtime Clock</Description><StartTime><Timestamp dt:dt="int">0</Timestamp><DateUtc dt:dt="string">2019-03-19T12:41:22Z</DateUtc></StartTime><FrequencyChanges><FrequencyChange><Frequency dt:dt="r8">3312695</Frequency><Timestamp dt:dt="r8">56021320975</Timestamp><Current dt:dt="r8">0</Current><DateUtc dt:dt="string">2019-03-19T12:41:22Z</DateUtc></FrequencyChange></FrequencyChanges></Clock>\n	Mood-103-1	60.005	1.0.0.399	1	187394505	Professional	2.0.10.356	2.0.10.356	03-19-2019	19-3-2019 12:41:22	13:41:22	2.0.10.252	5			3	1	3																			MoodQuest	?	ExpList	Quest	4					4	1	4		MoodQuestProc	How much did your own memory help to get into the mood, on a scale of 1 (not at all) to 8 (very much)?	8	4819	MoodQuestions
Mood	103	1	<?xml version="1.0"?>\n<Clock xmlns:dt="urn:schemas-microsoft-com:datatypes"><Description dt:dt="string">E-Prime Primary Realtime Clock</Description><StartTime><Timestamp dt:dt="int">0</Timestamp><DateUtc dt:dt="string">2019-03-19T12:41:22Z</DateUtc></StartTime><FrequencyChanges><FrequencyChange><Frequency dt:dt="r8">3312695</Frequency><Timestamp dt:dt="r8">56021320975</Timestamp><Current dt:dt="r8">0</Current><DateUtc dt:dt="string">2019-03-19T12:41:22Z</DateUtc></FrequencyChange></FrequencyChanges></Clock>\n	Mood-103-1	60.005	1.0.0.399	1	187394505	Professional	2.0.10.356	2.0.10.356	03-19-2019	19-3-2019 12:41:22	13:41:22	2.0.10.252	6			4	1	4																			Mood	a	ExpList	Mood3	1	1	3	3	8				8	AffectGridProc				AffectGrid
Mood	104	1	<?xml version="1.0"?>\n<Clock xmlns:dt="urn:schemas-microsoft-com:datatypes"><Description dt:dt="string">E-Prime Primary Realtime Clock</Description><StartTime><Timestamp dt:dt="int">0</Timestamp><DateUtc dt:dt="string">2019-03-19T13:35:01Z</DateUtc></StartTime><FrequencyChanges><FrequencyChange><Frequency dt:dt="r8">3312695</Frequency><Timestamp dt:dt="r8">66685972888</Timestamp><Current dt:dt="r8">0</Current><DateUtc dt:dt="string">2019-03-19T13:35:01Z</DateUtc></FrequencyChange></FrequencyChanges></Clock>\n	Mood-104-1	60.005	1.0.0.399	1	-2032865183	Professional	2.0.10.356	2.0.10.356	03-19-2019	19-3-2019 13:35:01	14:35:01	2.0.10.252	1	2	A relative of yours, with whom you’ve shared a close relationship, has been diagnosed with early-onset Alzheimers. Whereas (s)he used to be full of life and wisdom, you can see the passion fade away as (s)he forgets more and more, until eventually (s)he doesn’t even remember you and the great times you’ve had anymore. 				S	2										1	1	1	sad	Before we continue to the task, I, the experimenter, would like to assure you that at the end of the task, I will make sure you get back to a normal mood.	Are you still a bit down? The experiment leader has a nice little surprise for you. Hopefully it will make you feel a little better.  	a sad	InitializeProc		IntExpList															
Mood	104	1	<?xml version="1.0"?>\n<Clock xmlns:dt="urn:schemas-microsoft-com:datatypes"><Description dt:dt="string">E-Prime Primary Realtime Clock</Description><StartTime><Timestamp dt:dt="int">0</Timestamp><DateUtc dt:dt="string">2019-03-19T13:35:01Z</DateUtc></StartTime><FrequencyChanges><FrequencyChange><Frequency dt:dt="r8">3312695</Frequency><Timestamp dt:dt="r8">66685972888</Timestamp><Current dt:dt="r8">0</Current><DateUtc dt:dt="string">2019-03-19T13:35:01Z</DateUtc></FrequencyChange></FrequencyChanges></Clock>\n	Mood-104-1	60.005	1.0.0.399	1	-2032865183	Professional	2.0.10.356	2.0.10.356	03-19-2019	19-3-2019 13:35:01	14:35:01	2.0.10.252	2																	2	1	2					Mood		IntExpList		1	1	1	1	5				6	AffectGridProc				AffectGrid
Mood	104	1	<?xml version="1.0"?>\n<Clock xmlns:dt="urn:schemas-microsoft-com:datatypes"><Description dt:dt="string">E-Prime Primary Realtime Clock</Description><StartTime><Timestamp dt:dt="int">0</Timestamp><DateUtc dt:dt="string">2019-03-19T13:35:01Z</DateUtc></StartTime><FrequencyChanges><FrequencyChange><Frequency dt:dt="r8">3312695</Frequency><Timestamp dt:dt="r8">66685972888</Timestamp><Current dt:dt="r8">0</Current><DateUtc dt:dt="string">2019-03-19T13:35:01Z</DateUtc></FrequencyChange></FrequencyChanges></Clock>\n	Mood-104-1	60.005	1.0.0.399	1	-2032865183	Professional	2.0.10.356	2.0.10.356	03-19-2019	19-3-2019 13:35:01	14:35:01	2.0.10.252	3	2	A relative of yours, with whom you’ve shared a close relationship, has been diagnosed with early-onset Alzheimers. Whereas (s)he used to be full of life and wisdom, you can see the passion fade away as (s)he forgets more and more, until eventually (s)he doesn’t even remember you and the great times you’ve had anymore. 	1	1	1	S	2	1		0	16	63151	600038		0	0				sad	Before we continue to the task, I, the experimenter, would like to assure you that at the end of the task, I will make sure you get back to a normal mood.	Are you still a bit down? The experiment leader has a nice little surprise for you. Hopefully it will make you feel a little better.  	a sad	MoodProc	?	ExpList	Music														
Mood	104	1	<?xml version="1.0"?>\n<Clock xmlns:dt="urn:schemas-microsoft-com:datatypes"><Description dt:dt="string">E-Prime Primary Realtime Clock</Description><StartTime><Timestamp dt:dt="int">0</Timestamp><DateUtc dt:dt="string">2019-03-19T13:35:01Z</DateUtc></StartTime><FrequencyChanges><FrequencyChange><Frequency dt:dt="r8">3312695</Frequency><Timestamp dt:dt="r8">66685972888</Timestamp><Current dt:dt="r8">0</Current><DateUtc dt:dt="string">2019-03-19T13:35:01Z</DateUtc></FrequencyChange></FrequencyChanges></Clock>\n	Mood-104-1	60.005	1.0.0.399	1	-2032865183	Professional	2.0.10.356	2.0.10.356	03-19-2019	19-3-2019 13:35:01	14:35:01	2.0.10.252	4			2	1	2																			Mood	a	ExpList	Mood2	1	1	2	2	5				4	AffectGridProc				AffectGrid
Mood	104	1	<?xml version="1.0"?>\n<Clock xmlns:dt="urn:schemas-microsoft-com:datatypes"><Description dt:dt="string">E-Prime Primary Realtime Clock</Description><StartTime><Timestamp dt:dt="int">0</Timestamp><DateUtc dt:dt="string">2019-03-19T13:35:01Z</DateUtc></StartTime><FrequencyChanges><FrequencyChange><Frequency dt:dt="r8">3312695</Frequency><Timestamp dt:dt="r8">66685972888</Timestamp><Current dt:dt="r8">0</Current><DateUtc dt:dt="string">2019-03-19T13:35:01Z</DateUtc></FrequencyChange></FrequencyChanges></Clock>\n	Mood-104-1	60.005	1.0.0.399	1	-2032865183	Professional	2.0.10.356	2.0.10.356	03-19-2019	19-3-2019 13:35:01	14:35:01	2.0.10.252	5			3	1	3																			MoodQuest	?	ExpList	Quest	1					1	1	1		MoodQuestProc	How difficult did you find it to get into the mood, on a scale of 1 (not at all) to 8 (very much)?	5	10274	MoodQuestions
Mood	104	1	<?xml version="1.0"?>\n<Clock xmlns:dt="urn:schemas-microsoft-com:datatypes"><Description dt:dt="string">E-Prime Primary Realtime Clock</Description><StartTime><Timestamp dt:dt="int">0</Timestamp><DateUtc dt:dt="string">2019-03-19T13:35:01Z</DateUtc></StartTime><FrequencyChanges><FrequencyChange><Frequency dt:dt="r8">3312695</Frequency><Timestamp dt:dt="r8">66685972888</Timestamp><Current dt:dt="r8">0</Current><DateUtc dt:dt="string">2019-03-19T13:35:01Z</DateUtc></FrequencyChange></FrequencyChanges></Clock>\n	Mood-104-1	60.005	1.0.0.399	1	-2032865183	Professional	2.0.10.356	2.0.10.356	03-19-2019	19-3-2019 13:35:01	14:35:01	2.0.10.252	5			3	1	3																			MoodQuest	?	ExpList	Quest	2					2	1	2		MoodQuestProc	How much did the example story help to get into the mood, on a scale of 1 (not at all) to 8 (very much)?	4	5811	MoodQuestions
Mood	104	1	<?xml version="1.0"?>\n<Clock xmlns:dt="urn:schemas-microsoft-com:datatypes"><Description dt:dt="string">E-Prime Primary Realtime Clock</Description><StartTime><Timestamp dt:dt="int">0</Timestamp><DateUtc dt:dt="string">2019-03-19T13:35:01Z</DateUtc></StartTime><FrequencyChanges><FrequencyChange><Frequency dt:dt="r8">3312695</Frequency><Timestamp dt:dt="r8">66685972888</Timestamp><Current dt:dt="r8">0</Current><DateUtc dt:dt="string">2019-03-19T13:35:01Z</DateUtc></FrequencyChange></FrequencyChanges></Clock>\n	Mood-104-1	60.005	1.0.0.399	1	-2032865183	Professional	2.0.10.356	2.0.10.356	03-19-2019	19-3-2019 13:35:01	14:35:01	2.0.10.252	5			3	1	3																			MoodQuest	?	ExpList	Quest	3					3	1	3		MoodQuestProc	How much did the music help to get into the mood, on a scale of 1 (not at all) to 8 (very much)?	4	10030	MoodQuestions
Mood	104	1	<?xml version="1.0"?>\n<Clock xmlns:dt="urn:schemas-microsoft-com:datatypes"><Description dt:dt="string">E-Prime Primary Realtime Clock</Description><StartTime><Timestamp dt:dt="int">0</Timestamp><DateUtc dt:dt="string">2019-03-19T13:35:01Z</DateUtc></StartTime><FrequencyChanges><FrequencyChange><Frequency dt:dt="r8">3312695</Frequency><Timestamp dt:dt="r8">66685972888</Timestamp><Current dt:dt="r8">0</Current><DateUtc dt:dt="string">2019-03-19T13:35:01Z</DateUtc></FrequencyChange></FrequencyChanges></Clock>\n	Mood-104-1	60.005	1.0.0.399	1	-2032865183	Professional	2.0.10.356	2.0.10.356	03-19-2019	19-3-2019 13:35:01	14:35:01	2.0.10.252	5			3	1	3																			MoodQuest	?	ExpList	Quest	4					4	1	4		MoodQuestProc	How much did your own memory help to get into the mood, on a scale of 1 (not at all) to 8 (very much)?	6	3473	MoodQuestions
Mood	104	1	<?xml version="1.0"?>\n<Clock xmlns:dt="urn:schemas-microsoft-com:datatypes"><Description dt:dt="string">E-Prime Primary Realtime Clock</Description><StartTime><Timestamp dt:dt="int">0</Timestamp><DateUtc dt:dt="string">2019-03-19T13:35:01Z</DateUtc></StartTime><FrequencyChanges><FrequencyChange><Frequency dt:dt="r8">3312695</Frequency><Timestamp dt:dt="r8">66685972888</Timestamp><Current dt:dt="r8">0</Current><DateUtc dt:dt="string">2019-03-19T13:35:01Z</DateUtc></FrequencyChange></FrequencyChanges></Clock>\n	Mood-104-1	60.005	1.0.0.399	1	-2032865183	Professional	2.0.10.356	2.0.10.356	03-19-2019	19-3-2019 13:35:01	14:35:01	2.0.10.252	6			4	1	4																			Mood	a	ExpList	Mood3	1	1	3	3	5				3	AffectGridProc				AffectGrid
Mood	105	1	<?xml version="1.0"?>\n<Clock xmlns:dt="urn:schemas-microsoft-com:datatypes"><Description dt:dt="string">E-Prime Primary Realtime Clock</Description><StartTime><Timestamp dt:dt="int">0</Timestamp><DateUtc dt:dt="string">2019-03-19T14:48:04Z</DateUtc></StartTime><FrequencyChanges><FrequencyChange><Frequency dt:dt="r8">3312695</Frequency><Timestamp dt:dt="r8">81205485084</Timestamp><Current dt:dt="r8">0</Current><DateUtc dt:dt="string">2019-03-19T14:48:04Z</DateUtc></FrequencyChange></FrequencyChanges></Clock>\n	Mood-105-1	60.005	1.0.0.399	1	-398250684	Professional	2.0.10.356	2.0.10.356	03-19-2019	19-3-2019 14:48:05	15:48:05	2.0.10.252	1	1	It’s your birthday and your friends throw you an amazing surprise party! All of your favorite people are there, and they are having a great time together with you, doing the best imaginable birthday activities. 				E	1										1	1	1	excited			an excited	InitializeProc		IntExpList															
Mood	105	1	<?xml version="1.0"?>\n<Clock xmlns:dt="urn:schemas-microsoft-com:datatypes"><Description dt:dt="string">E-Prime Primary Realtime Clock</Description><StartTime><Timestamp dt:dt="int">0</Timestamp><DateUtc dt:dt="string">2019-03-19T14:48:04Z</DateUtc></StartTime><FrequencyChanges><FrequencyChange><Frequency dt:dt="r8">3312695</Frequency><Timestamp dt:dt="r8">81205485084</Timestamp><Current dt:dt="r8">0</Current><DateUtc dt:dt="string">2019-03-19T14:48:04Z</DateUtc></FrequencyChange></FrequencyChanges></Clock>\n	Mood-105-1	60.005	1.0.0.399	1	-398250684	Professional	2.0.10.356	2.0.10.356	03-19-2019	19-3-2019 14:48:05	15:48:05	2.0.10.252	2																	2	1	2					Mood		IntExpList		1	1	1	1	8				7	AffectGridProc				AffectGrid
Mood	105	1	<?xml version="1.0"?>\n<Clock xmlns:dt="urn:schemas-microsoft-com:datatypes"><Description dt:dt="string">E-Prime Primary Realtime Clock</Description><StartTime><Timestamp dt:dt="int">0</Timestamp><DateUtc dt:dt="string">2019-03-19T14:48:04Z</DateUtc></StartTime><FrequencyChanges><FrequencyChange><Frequency dt:dt="r8">3312695</Frequency><Timestamp dt:dt="r8">81205485084</Timestamp><Current dt:dt="r8">0</Current><DateUtc dt:dt="string">2019-03-19T14:48:04Z</DateUtc></FrequencyChange></FrequencyChanges></Clock>\n	Mood-105-1	60.005	1.0.0.399	1	-398250684	Professional	2.0.10.356	2.0.10.356	03-19-2019	19-3-2019 14:48:05	15:48:05	2.0.10.252	3	1	It’s your birthday and your friends throw you an amazing surprise party! All of your favorite people are there, and they are having a great time together with you, doing the best imaginable birthday activities. 	1	1	1	E	1	1		0	16	71038	600038		0	0				excited			an excited	MoodProc	?	ExpList	Music														
Mood	105	1	<?xml version="1.0"?>\n<Clock xmlns:dt="urn:schemas-microsoft-com:datatypes"><Description dt:dt="string">E-Prime Primary Realtime Clock</Description><StartTime><Timestamp dt:dt="int">0</Timestamp><DateUtc dt:dt="string">2019-03-19T14:48:04Z</DateUtc></StartTime><FrequencyChanges><FrequencyChange><Frequency dt:dt="r8">3312695</Frequency><Timestamp dt:dt="r8">81205485084</Timestamp><Current dt:dt="r8">0</Current><DateUtc dt:dt="string">2019-03-19T14:48:04Z</DateUtc></FrequencyChange></FrequencyChanges></Clock>\n	Mood-105-1	60.005	1.0.0.399	1	-398250684	Professional	2.0.10.356	2.0.10.356	03-19-2019	19-3-2019 14:48:05	15:48:05	2.0.10.252	4			2	1	2																			Mood	a	ExpList	Mood2	1	1	2	2	5				8	AffectGridProc				AffectGrid
Mood	105	1	<?xml version="1.0"?>\n<Clock xmlns:dt="urn:schemas-microsoft-com:datatypes"><Description dt:dt="string">E-Prime Primary Realtime Clock</Description><StartTime><Timestamp dt:dt="int">0</Timestamp><DateUtc dt:dt="string">2019-03-19T14:48:04Z</DateUtc></StartTime><FrequencyChanges><FrequencyChange><Frequency dt:dt="r8">3312695</Frequency><Timestamp dt:dt="r8">81205485084</Timestamp><Current dt:dt="r8">0</Current><DateUtc dt:dt="string">2019-03-19T14:48:04Z</DateUtc></FrequencyChange></FrequencyChanges></Clock>\n	Mood-105-1	60.005	1.0.0.399	1	-398250684	Professional	2.0.10.356	2.0.10.356	03-19-2019	19-3-2019 14:48:05	15:48:05	2.0.10.252	5			3	1	3																			MoodQuest	?	ExpList	Quest	1					1	1	1		MoodQuestProc	How difficult did you find it to get into the mood, on a scale of 1 (not at all) to 8 (very much)?	6	3911	MoodQuestions
Mood	105	1	<?xml version="1.0"?>\n<Clock xmlns:dt="urn:schemas-microsoft-com:datatypes"><Description dt:dt="string">E-Prime Primary Realtime Clock</Description><StartTime><Timestamp dt:dt="int">0</Timestamp><DateUtc dt:dt="string">2019-03-19T14:48:04Z</DateUtc></StartTime><FrequencyChanges><FrequencyChange><Frequency dt:dt="r8">3312695</Frequency><Timestamp dt:dt="r8">81205485084</Timestamp><Current dt:dt="r8">0</Current><DateUtc dt:dt="string">2019-03-19T14:48:04Z</DateUtc></FrequencyChange></FrequencyChanges></Clock>\n	Mood-105-1	60.005	1.0.0.399	1	-398250684	Professional	2.0.10.356	2.0.10.356	03-19-2019	19-3-2019 14:48:05	15:48:05	2.0.10.252	5			3	1	3																			MoodQuest	?	ExpList	Quest	2					2	1	2		MoodQuestProc	How much did the example story help to get into the mood, on a scale of 1 (not at all) to 8 (very much)?	6	3303	MoodQuestions
Mood	105	1	<?xml version="1.0"?>\n<Clock xmlns:dt="urn:schemas-microsoft-com:datatypes"><Description dt:dt="string">E-Prime Primary Realtime Clock</Description><StartTime><Timestamp dt:dt="int">0</Timestamp><DateUtc dt:dt="string">2019-03-19T14:48:04Z</DateUtc></StartTime><FrequencyChanges><FrequencyChange><Frequency dt:dt="r8">3312695</Frequency><Timestamp dt:dt="r8">81205485084</Timestamp><Current dt:dt="r8">0</Current><DateUtc dt:dt="string">2019-03-19T14:48:04Z</DateUtc></FrequencyChange></FrequencyChanges></Clock>\n	Mood-105-1	60.005	1.0.0.399	1	-398250684	Professional	2.0.10.356	2.0.10.356	03-19-2019	19-3-2019 14:48:05	15:48:05	2.0.10.252	5			3	1	3																			MoodQuest	?	ExpList	Quest	3					3	1	3		MoodQuestProc	How much did the music help to get into the mood, on a scale of 1 (not at all) to 8 (very much)?	5	1942	MoodQuestions
Mood	105	1	<?xml version="1.0"?>\n<Clock xmlns:dt="urn:schemas-microsoft-com:datatypes"><Description dt:dt="string">E-Prime Primary Realtime Clock</Description><StartTime><Timestamp dt:dt="int">0</Timestamp><DateUtc dt:dt="string">2019-03-19T14:48:04Z</DateUtc></StartTime><FrequencyChanges><FrequencyChange><Frequency dt:dt="r8">3312695</Frequency><Timestamp dt:dt="r8">81205485084</Timestamp><Current dt:dt="r8">0</Current><DateUtc dt:dt="string">2019-03-19T14:48:04Z</DateUtc></FrequencyChange></FrequencyChanges></Clock>\n	Mood-105-1	60.005	1.0.0.399	1	-398250684	Professional	2.0.10.356	2.0.10.356	03-19-2019	19-3-2019 14:48:05	15:48:05	2.0.10.252	5			3	1	3																			MoodQuest	?	ExpList	Quest	4					4	1	4		MoodQuestProc	How much did your own memory help to get into the mood, on a scale of 1 (not at all) to 8 (very much)?	7	1964	MoodQuestions
Mood	105	1	<?xml version="1.0"?>\n<Clock xmlns:dt="urn:schemas-microsoft-com:datatypes"><Description dt:dt="string">E-Prime Primary Realtime Clock</Description><StartTime><Timestamp dt:dt="int">0</Timestamp><DateUtc dt:dt="string">2019-03-19T14:48:04Z</DateUtc></StartTime><FrequencyChanges><FrequencyChange><Frequency dt:dt="r8">3312695</Frequency><Timestamp dt:dt="r8">81205485084</Timestamp><Current dt:dt="r8">0</Current><DateUtc dt:dt="string">2019-03-19T14:48:04Z</DateUtc></FrequencyChange></FrequencyChanges></Clock>\n	Mood-105-1	60.005	1.0.0.399	1	-398250684	Professional	2.0.10.356	2.0.10.356	03-19-2019	19-3-2019 14:48:05	15:48:05	2.0.10.252	6			4	1	4																			Mood	a	ExpList	Mood3	1	1	3	3	7				8	AffectGridProc				AffectGrid
Mood	106	1	<?xml version="1.0"?>\n<Clock xmlns:dt="urn:schemas-microsoft-com:datatypes"><Description dt:dt="string">E-Prime Primary Realtime Clock</Description><StartTime><Timestamp dt:dt="int">0</Timestamp><DateUtc dt:dt="string">2019-03-22T12:09:59Z</DateUtc></StartTime><FrequencyChanges><FrequencyChange><Frequency dt:dt="r8">3312675</Frequency><Timestamp dt:dt="r8">51309586628</Timestamp><Current dt:dt="r8">0</Current><DateUtc dt:dt="string">2019-03-22T12:09:59Z</DateUtc></FrequencyChange></FrequencyChanges></Clock>\n	Mood-106-1	60.004	1.0.0.399	1	-229378405	Professional	2.0.10.356	2.0.10.356	03-22-2019	22-3-2019 12:09:59	13:09:59	2.0.10.252	1	2	A relative of yours, with whom you’ve shared a close relationship, has been diagnosed with early-onset Alzheimers. Whereas (s)he used to be full of life and wisdom, you can see the passion fade away as (s)he forgets more and more, until eventually (s)he doesn’t even remember you and the great times you’ve had anymore. 				S	2										1	1	1	sad	Before we continue to the task, I, the experimenter, would like to assure you that at the end of the task, I will make sure you get back to a normal mood.	Are you still a bit down? The experiment leader has a nice little surprise for you. Hopefully it will make you feel a little better.  	a sad	InitializeProc		IntExpList															
Mood	106	1	<?xml version="1.0"?>\n<Clock xmlns:dt="urn:schemas-microsoft-com:datatypes"><Description dt:dt="string">E-Prime Primary Realtime Clock</Description><StartTime><Timestamp dt:dt="int">0</Timestamp><DateUtc dt:dt="string">2019-03-22T12:09:59Z</DateUtc></StartTime><FrequencyChanges><FrequencyChange><Frequency dt:dt="r8">3312675</Frequency><Timestamp dt:dt="r8">51309586628</Timestamp><Current dt:dt="r8">0</Current><DateUtc dt:dt="string">2019-03-22T12:09:59Z</DateUtc></FrequencyChange></FrequencyChanges></Clock>\n	Mood-106-1	60.004	1.0.0.399	1	-229378405	Professional	2.0.10.356	2.0.10.356	03-22-2019	22-3-2019 12:09:59	13:09:59	2.0.10.252	2																	2	1	2					Mood		IntExpList		1	1	1	1	7				6	AffectGridProc				AffectGrid
Mood	106	1	<?xml version="1.0"?>\n<Clock xmlns:dt="urn:schemas-microsoft-com:datatypes"><Description dt:dt="string">E-Prime Primary Realtime Clock</Description><StartTime><Timestamp dt:dt="int">0</Timestamp><DateUtc dt:dt="string">2019-03-22T12:09:59Z</DateUtc></StartTime><FrequencyChanges><FrequencyChange><Frequency dt:dt="r8">3312675</Frequency><Timestamp dt:dt="r8">51309586628</Timestamp><Current dt:dt="r8">0</Current><DateUtc dt:dt="string">2019-03-22T12:09:59Z</DateUtc></FrequencyChange></FrequencyChanges></Clock>\n	Mood-106-1	60.004	1.0.0.399	1	-229378405	Professional	2.0.10.356	2.0.10.356	03-22-2019	22-3-2019 12:09:59	13:09:59	2.0.10.252	3	2	A relative of yours, with whom you’ve shared a close relationship, has been diagnosed with early-onset Alzheimers. Whereas (s)he used to be full of life and wisdom, you can see the passion fade away as (s)he forgets more and more, until eventually (s)he doesn’t even remember you and the great times you’ve had anymore. 	1	1	1	S	2	1		0	0	146434	600042		0	0				sad	Before we continue to the task, I, the experimenter, would like to assure you that at the end of the task, I will make sure you get back to a normal mood.	Are you still a bit down? The experiment leader has a nice little surprise for you. Hopefully it will make you feel a little better.  	a sad	MoodProc	?	ExpList	Music														
Mood	106	1	<?xml version="1.0"?>\n<Clock xmlns:dt="urn:schemas-microsoft-com:datatypes"><Description dt:dt="string">E-Prime Primary Realtime Clock</Description><StartTime><Timestamp dt:dt="int">0</Timestamp><DateUtc dt:dt="string">2019-03-22T12:09:59Z</DateUtc></StartTime><FrequencyChanges><FrequencyChange><Frequency dt:dt="r8">3312675</Frequency><Timestamp dt:dt="r8">51309586628</Timestamp><Current dt:dt="r8">0</Current><DateUtc dt:dt="string">2019-03-22T12:09:59Z</DateUtc></FrequencyChange></FrequencyChanges></Clock>\n	Mood-106-1	60.004	1.0.0.399	1	-229378405	Professional	2.0.10.356	2.0.10.356	03-22-2019	22-3-2019 12:09:59	13:09:59	2.0.10.252	4			2	1	2																			Mood	a	ExpList	Mood2	1	1	2	2	6				2	AffectGridProc				AffectGrid
Mood	106	1	<?xml version="1.0"?>\n<Clock xmlns:dt="urn:schemas-microsoft-com:datatypes"><Description dt:dt="string">E-Prime Primary Realtime Clock</Description><StartTime><Timestamp dt:dt="int">0</Timestamp><DateUtc dt:dt="string">2019-03-22T12:09:59Z</DateUtc></StartTime><FrequencyChanges><FrequencyChange><Frequency dt:dt="r8">3312675</Frequency><Timestamp dt:dt="r8">51309586628</Timestamp><Current dt:dt="r8">0</Current><DateUtc dt:dt="string">2019-03-22T12:09:59Z</DateUtc></FrequencyChange></FrequencyChanges></Clock>\n	Mood-106-1	60.004	1.0.0.399	1	-229378405	Professional	2.0.10.356	2.0.10.356	03-22-2019	22-3-2019 12:09:59	13:09:59	2.0.10.252	5			3	1	3																			MoodQuest	?	ExpList	Quest	1					1	1	1		MoodQuestProc	How difficult did you find it to get into the mood, on a scale of 1 (not at all) to 8 (very much)?	4	10586	MoodQuestions
Mood	106	1	<?xml version="1.0"?>\n<Clock xmlns:dt="urn:schemas-microsoft-com:datatypes"><Description dt:dt="string">E-Prime Primary Realtime Clock</Description><StartTime><Timestamp dt:dt="int">0</Timestamp><DateUtc dt:dt="string">2019-03-22T12:09:59Z</DateUtc></StartTime><FrequencyChanges><FrequencyChange><Frequency dt:dt="r8">3312675</Frequency><Timestamp dt:dt="r8">51309586628</Timestamp><Current dt:dt="r8">0</Current><DateUtc dt:dt="string">2019-03-22T12:09:59Z</DateUtc></FrequencyChange></FrequencyChanges></Clock>\n	Mood-106-1	60.004	1.0.0.399	1	-229378405	Professional	2.0.10.356	2.0.10.356	03-22-2019	22-3-2019 12:09:59	13:09:59	2.0.10.252	5			3	1	3																			MoodQuest	?	ExpList	Quest	2					2	1	2		MoodQuestProc	How much did the example story help to get into the mood, on a scale of 1 (not at all) to 8 (very much)?	1	4646	MoodQuestions
Mood	106	1	<?xml version="1.0"?>\n<Clock xmlns:dt="urn:schemas-microsoft-com:datatypes"><Description dt:dt="string">E-Prime Primary Realtime Clock</Description><StartTime><Timestamp dt:dt="int">0</Timestamp><DateUtc dt:dt="string">2019-03-22T12:09:59Z</DateUtc></StartTime><FrequencyChanges><FrequencyChange><Frequency dt:dt="r8">3312675</Frequency><Timestamp dt:dt="r8">51309586628</Timestamp><Current dt:dt="r8">0</Current><DateUtc dt:dt="string">2019-03-22T12:09:59Z</DateUtc></FrequencyChange></FrequencyChanges></Clock>\n	Mood-106-1	60.004	1.0.0.399	1	-229378405	Professional	2.0.10.356	2.0.10.356	03-22-2019	22-3-2019 12:09:59	13:09:59	2.0.10.252	5			3	1	3																			MoodQuest	?	ExpList	Quest	3					3	1	3		MoodQuestProc	How much did the music help to get into the mood, on a scale of 1 (not at all) to 8 (very much)?	6	3919	MoodQuestions
Mood	106	1	<?xml version="1.0"?>\n<Clock xmlns:dt="urn:schemas-microsoft-com:datatypes"><Description dt:dt="string">E-Prime Primary Realtime Clock</Description><StartTime><Timestamp dt:dt="int">0</Timestamp><DateUtc dt:dt="string">2019-03-22T12:09:59Z</DateUtc></StartTime><FrequencyChanges><FrequencyChange><Frequency dt:dt="r8">3312675</Frequency><Timestamp dt:dt="r8">51309586628</Timestamp><Current dt:dt="r8">0</Current><DateUtc dt:dt="string">2019-03-22T12:09:59Z</DateUtc></FrequencyChange></FrequencyChanges></Clock>\n	Mood-106-1	60.004	1.0.0.399	1	-229378405	Professional	2.0.10.356	2.0.10.356	03-22-2019	22-3-2019 12:09:59	13:09:59	2.0.10.252	5			3	1	3																			MoodQuest	?	ExpList	Quest	4					4	1	4		MoodQuestProc	How much did your own memory help to get into the mood, on a scale of 1 (not at all) to 8 (very much)?	8	3862	MoodQuestions
Mood	106	1	<?xml version="1.0"?>\n<Clock xmlns:dt="urn:schemas-microsoft-com:datatypes"><Description dt:dt="string">E-Prime Primary Realtime Clock</Description><StartTime><Timestamp dt:dt="int">0</Timestamp><DateUtc dt:dt="string">2019-03-22T12:09:59Z</DateUtc></StartTime><FrequencyChanges><FrequencyChange><Frequency dt:dt="r8">3312675</Frequency><Timestamp dt:dt="r8">51309586628</Timestamp><Current dt:dt="r8">0</Current><DateUtc dt:dt="string">2019-03-22T12:09:59Z</DateUtc></FrequencyChange></FrequencyChanges></Clock>\n	Mood-106-1	60.004	1.0.0.399	1	-229378405	Professional	2.0.10.356	2.0.10.356	03-22-2019	22-3-2019 12:09:59	13:09:59	2.0.10.252	6			4	1	4																			Mood	a	ExpList	Mood3	1	1	3	3	6				2	AffectGridProc				AffectGrid
Mood	107	1	<?xml version="1.0"?>\n<Clock xmlns:dt="urn:schemas-microsoft-com:datatypes"><Description dt:dt="string">E-Prime Primary Realtime Clock</Description><StartTime><Timestamp dt:dt="int">0</Timestamp><DateUtc dt:dt="string">2019-03-25T08:17:45Z</DateUtc></StartTime><FrequencyChanges><FrequencyChange><Frequency dt:dt="r8">3312685</Frequency><Timestamp dt:dt="r8">6557413447</Timestamp><Current dt:dt="r8">0</Current><DateUtc dt:dt="string">2019-03-25T08:17:45Z</DateUtc></FrequencyChange></FrequencyChanges></Clock>\n	Mood-107-1	60.005	1.0.0.399	1	-2031852823	Professional	2.0.10.356	2.0.10.356	03-25-2019	25-3-2019 8:17:45	09:17:45	2.0.10.252	1	1	It’s your birthday and your friends throw you an amazing surprise party! All of your favorite people are there, and they are having a great time together with you, doing the best imaginable birthday activities. 				E	1										1	1	1	excited			an excited	InitializeProc		IntExpList															
Mood	107	1	<?xml version="1.0"?>\n<Clock xmlns:dt="urn:schemas-microsoft-com:datatypes"><Description dt:dt="string">E-Prime Primary Realtime Clock</Description><StartTime><Timestamp dt:dt="int">0</Timestamp><DateUtc dt:dt="string">2019-03-25T08:17:45Z</DateUtc></StartTime><FrequencyChanges><FrequencyChange><Frequency dt:dt="r8">3312685</Frequency><Timestamp dt:dt="r8">6557413447</Timestamp><Current dt:dt="r8">0</Current><DateUtc dt:dt="string">2019-03-25T08:17:45Z</DateUtc></FrequencyChange></FrequencyChanges></Clock>\n	Mood-107-1	60.005	1.0.0.399	1	-2031852823	Professional	2.0.10.356	2.0.10.356	03-25-2019	25-3-2019 8:17:45	09:17:45	2.0.10.252	2																	2	1	2					Mood		IntExpList		1	1	1	1	5				8	AffectGridProc				AffectGrid
Mood	107	1	<?xml version="1.0"?>\n<Clock xmlns:dt="urn:schemas-microsoft-com:datatypes"><Description dt:dt="string">E-Prime Primary Realtime Clock</Description><StartTime><Timestamp dt:dt="int">0</Timestamp><DateUtc dt:dt="string">2019-03-25T08:17:45Z</DateUtc></StartTime><FrequencyChanges><FrequencyChange><Frequency dt:dt="r8">3312685</Frequency><Timestamp dt:dt="r8">6557413447</Timestamp><Current dt:dt="r8">0</Current><DateUtc dt:dt="string">2019-03-25T08:17:45Z</DateUtc></FrequencyChange></FrequencyChanges></Clock>\n	Mood-107-1	60.005	1.0.0.399	1	-2031852823	Professional	2.0.10.356	2.0.10.356	03-25-2019	25-3-2019 8:17:45	09:17:45	2.0.10.252	3	1	It’s your birthday and your friends throw you an amazing surprise party! All of your favorite people are there, and they are having a great time together with you, doing the best imaginable birthday activities. 	1	1	1	E	1	1		0	0	114685	600039		0	0				excited			an excited	MoodProc	?	ExpList	Music														
Mood	107	1	<?xml version="1.0"?>\n<Clock xmlns:dt="urn:schemas-microsoft-com:datatypes"><Description dt:dt="string">E-Prime Primary Realtime Clock</Description><StartTime><Timestamp dt:dt="int">0</Timestamp><DateUtc dt:dt="string">2019-03-25T08:17:45Z</DateUtc></StartTime><FrequencyChanges><FrequencyChange><Frequency dt:dt="r8">3312685</Frequency><Timestamp dt:dt="r8">6557413447</Timestamp><Current dt:dt="r8">0</Current><DateUtc dt:dt="string">2019-03-25T08:17:45Z</DateUtc></FrequencyChange></FrequencyChanges></Clock>\n	Mood-107-1	60.005	1.0.0.399	1	-2031852823	Professional	2.0.10.356	2.0.10.356	03-25-2019	25-3-2019 8:17:45	09:17:45	2.0.10.252	4			2	1	2																			Mood	a	ExpList	Mood2	1	1	2	2	5				9	AffectGridProc				AffectGrid
Mood	107	1	<?xml version="1.0"?>\n<Clock xmlns:dt="urn:schemas-microsoft-com:datatypes"><Description dt:dt="string">E-Prime Primary Realtime Clock</Description><StartTime><Timestamp dt:dt="int">0</Timestamp><DateUtc dt:dt="string">2019-03-25T08:17:45Z</DateUtc></StartTime><FrequencyChanges><FrequencyChange><Frequency dt:dt="r8">3312685</Frequency><Timestamp dt:dt="r8">6557413447</Timestamp><Current dt:dt="r8">0</Current><DateUtc dt:dt="string">2019-03-25T08:17:45Z</DateUtc></FrequencyChange></FrequencyChanges></Clock>\n	Mood-107-1	60.005	1.0.0.399	1	-2031852823	Professional	2.0.10.356	2.0.10.356	03-25-2019	25-3-2019 8:17:45	09:17:45	2.0.10.252	5			3	1	3																			MoodQuest	?	ExpList	Quest	1					1	1	1		MoodQuestProc	How difficult did you find it to get into the mood, on a scale of 1 (not at all) to 8 (very much)?	2	6178	MoodQuestions
Mood	107	1	<?xml version="1.0"?>\n<Clock xmlns:dt="urn:schemas-microsoft-com:datatypes"><Description dt:dt="string">E-Prime Primary Realtime Clock</Description><StartTime><Timestamp dt:dt="int">0</Timestamp><DateUtc dt:dt="string">2019-03-25T08:17:45Z</DateUtc></StartTime><FrequencyChanges><FrequencyChange><Frequency dt:dt="r8">3312685</Frequency><Timestamp dt:dt="r8">6557413447</Timestamp><Current dt:dt="r8">0</Current><DateUtc dt:dt="string">2019-03-25T08:17:45Z</DateUtc></FrequencyChange></FrequencyChanges></Clock>\n	Mood-107-1	60.005	1.0.0.399	1	-2031852823	Professional	2.0.10.356	2.0.10.356	03-25-2019	25-3-2019 8:17:45	09:17:45	2.0.10.252	5			3	1	3																			MoodQuest	?	ExpList	Quest	2					2	1	2		MoodQuestProc	How much did the example story help to get into the mood, on a scale of 1 (not at all) to 8 (very much)?	2	6974	MoodQuestions
Mood	107	1	<?xml version="1.0"?>\n<Clock xmlns:dt="urn:schemas-microsoft-com:datatypes"><Description dt:dt="string">E-Prime Primary Realtime Clock</Description><StartTime><Timestamp dt:dt="int">0</Timestamp><DateUtc dt:dt="string">2019-03-25T08:17:45Z</DateUtc></StartTime><FrequencyChanges><FrequencyChange><Frequency dt:dt="r8">3312685</Frequency><Timestamp dt:dt="r8">6557413447</Timestamp><Current dt:dt="r8">0</Current><DateUtc dt:dt="string">2019-03-25T08:17:45Z</DateUtc></FrequencyChange></FrequencyChanges></Clock>\n	Mood-107-1	60.005	1.0.0.399	1	-2031852823	Professional	2.0.10.356	2.0.10.356	03-25-2019	25-3-2019 8:17:45	09:17:45	2.0.10.252	5			3	1	3																			MoodQuest	?	ExpList	Quest	3					3	1	3		MoodQuestProc	How much did the music help to get into the mood, on a scale of 1 (not at all) to 8 (very much)?	1	6812	MoodQuestions
Mood	107	1	<?xml version="1.0"?>\n<Clock xmlns:dt="urn:schemas-microsoft-com:datatypes"><Description dt:dt="string">E-Prime Primary Realtime Clock</Description><StartTime><Timestamp dt:dt="int">0</Timestamp><DateUtc dt:dt="string">2019-03-25T08:17:45Z</DateUtc></StartTime><FrequencyChanges><FrequencyChange><Frequency dt:dt="r8">3312685</Frequency><Timestamp dt:dt="r8">6557413447</Timestamp><Current dt:dt="r8">0</Current><DateUtc dt:dt="string">2019-03-25T08:17:45Z</DateUtc></FrequencyChange></FrequencyChanges></Clock>\n	Mood-107-1	60.005	1.0.0.399	1	-2031852823	Professional	2.0.10.356	2.0.10.356	03-25-2019	25-3-2019 8:17:45	09:17:45	2.0.10.252	5			3	1	3																			MoodQuest	?	ExpList	Quest	4					4	1	4		MoodQuestProc	How much did your own memory help to get into the mood, on a scale of 1 (not at all) to 8 (very much)?	8	3127	MoodQuestions
Mood	107	1	<?xml version="1.0"?>\n<Clock xmlns:dt="urn:schemas-microsoft-com:datatypes"><Description dt:dt="string">E-Prime Primary Realtime Clock</Description><StartTime><Timestamp dt:dt="int">0</Timestamp><DateUtc dt:dt="string">2019-03-25T08:17:45Z</DateUtc></StartTime><FrequencyChanges><FrequencyChange><Frequency dt:dt="r8">3312685</Frequency><Timestamp dt:dt="r8">6557413447</Timestamp><Current dt:dt="r8">0</Current><DateUtc dt:dt="string">2019-03-25T08:17:45Z</DateUtc></FrequencyChange></FrequencyChanges></Clock>\n	Mood-107-1	60.005	1.0.0.399	1	-2031852823	Professional	2.0.10.356	2.0.10.356	03-25-2019	25-3-2019 8:17:45	09:17:45	2.0.10.252	6			4	1	4																			Mood	a	ExpList	Mood3	1	1	3	3	5				8	AffectGridProc				AffectGrid
Mood	108	1	<?xml version="1.0"?>\n<Clock xmlns:dt="urn:schemas-microsoft-com:datatypes"><Description dt:dt="string">E-Prime Primary Realtime Clock</Description><StartTime><Timestamp dt:dt="int">0</Timestamp><DateUtc dt:dt="string">2019-03-25T09:23:30Z</DateUtc></StartTime><FrequencyChanges><FrequencyChange><Frequency dt:dt="r8">3312685</Frequency><Timestamp dt:dt="r8">19626371462</Timestamp><Current dt:dt="r8">0</Current><DateUtc dt:dt="string">2019-03-25T09:23:30Z</DateUtc></FrequencyChange></FrequencyChanges></Clock>\n	Mood-108-1	60.005	1.0.0.399	1	-1847840513	Professional	2.0.10.356	2.0.10.356	03-25-2019	25-3-2019 9:23:30	10:23:30	2.0.10.252	1	2	A relative of yours, with whom you’ve shared a close relationship, has been diagnosed with early-onset Alzheimers. Whereas (s)he used to be full of life and wisdom, you can see the passion fade away as (s)he forgets more and more, until eventually (s)he doesn’t even remember you and the great times you’ve had anymore. 				S	2										1	1	1	sad	Before we continue to the task, I, the experimenter, would like to assure you that at the end of the task, I will make sure you get back to a normal mood.	Are you still a bit down? The experiment leader has a nice little surprise for you. Hopefully it will make you feel a little better.  	a sad	InitializeProc		IntExpList															
Mood	108	1	<?xml version="1.0"?>\n<Clock xmlns:dt="urn:schemas-microsoft-com:datatypes"><Description dt:dt="string">E-Prime Primary Realtime Clock</Description><StartTime><Timestamp dt:dt="int">0</Timestamp><DateUtc dt:dt="string">2019-03-25T09:23:30Z</DateUtc></StartTime><FrequencyChanges><FrequencyChange><Frequency dt:dt="r8">3312685</Frequency><Timestamp dt:dt="r8">19626371462</Timestamp><Current dt:dt="r8">0</Current><DateUtc dt:dt="string">2019-03-25T09:23:30Z</DateUtc></FrequencyChange></FrequencyChanges></Clock>\n	Mood-108-1	60.005	1.0.0.399	1	-1847840513	Professional	2.0.10.356	2.0.10.356	03-25-2019	25-3-2019 9:23:30	10:23:30	2.0.10.252	2																	2	1	2					Mood		IntExpList		1	1	1	1	5				8	AffectGridProc				AffectGrid
Mood	108	1	<?xml version="1.0"?>\n<Clock xmlns:dt="urn:schemas-microsoft-com:datatypes"><Description dt:dt="string">E-Prime Primary Realtime Clock</Description><StartTime><Timestamp dt:dt="int">0</Timestamp><DateUtc dt:dt="string">2019-03-25T09:23:30Z</DateUtc></StartTime><FrequencyChanges><FrequencyChange><Frequency dt:dt="r8">3312685</Frequency><Timestamp dt:dt="r8">19626371462</Timestamp><Current dt:dt="r8">0</Current><DateUtc dt:dt="string">2019-03-25T09:23:30Z</DateUtc></FrequencyChange></FrequencyChanges></Clock>\n	Mood-108-1	60.005	1.0.0.399	1	-1847840513	Professional	2.0.10.356	2.0.10.356	03-25-2019	25-3-2019 9:23:30	10:23:30	2.0.10.252	3	2	A relative of yours, with whom you’ve shared a close relationship, has been diagnosed with early-onset Alzheimers. Whereas (s)he used to be full of life and wisdom, you can see the passion fade away as (s)he forgets more and more, until eventually (s)he doesn’t even remember you and the great times you’ve had anymore. 	1	1	1	S	2	1		0	0	143623	600040		0	0				sad	Before we continue to the task, I, the experimenter, would like to assure you that at the end of the task, I will make sure you get back to a normal mood.	Are you still a bit down? The experiment leader has a nice little surprise for you. Hopefully it will make you feel a little better.  	a sad	MoodProc	?	ExpList	Music														
Mood	108	1	<?xml version="1.0"?>\n<Clock xmlns:dt="urn:schemas-microsoft-com:datatypes"><Description dt:dt="string">E-Prime Primary Realtime Clock</Description><StartTime><Timestamp dt:dt="int">0</Timestamp><DateUtc dt:dt="string">2019-03-25T09:23:30Z</DateUtc></StartTime><FrequencyChanges><FrequencyChange><Frequency dt:dt="r8">3312685</Frequency><Timestamp dt:dt="r8">19626371462</Timestamp><Current dt:dt="r8">0</Current><DateUtc dt:dt="string">2019-03-25T09:23:30Z</DateUtc></FrequencyChange></FrequencyChanges></Clock>\n	Mood-108-1	60.005	1.0.0.399	1	-1847840513	Professional	2.0.10.356	2.0.10.356	03-25-2019	25-3-2019 9:23:30	10:23:30	2.0.10.252	4			2	1	2																			Mood	a	ExpList	Mood2	1	1	2	2	3				5	AffectGridProc				AffectGrid
Mood	108	1	<?xml version="1.0"?>\n<Clock xmlns:dt="urn:schemas-microsoft-com:datatypes"><Description dt:dt="string">E-Prime Primary Realtime Clock</Description><StartTime><Timestamp dt:dt="int">0</Timestamp><DateUtc dt:dt="string">2019-03-25T09:23:30Z</DateUtc></StartTime><FrequencyChanges><FrequencyChange><Frequency dt:dt="r8">3312685</Frequency><Timestamp dt:dt="r8">19626371462</Timestamp><Current dt:dt="r8">0</Current><DateUtc dt:dt="string">2019-03-25T09:23:30Z</DateUtc></FrequencyChange></FrequencyChanges></Clock>\n	Mood-108-1	60.005	1.0.0.399	1	-1847840513	Professional	2.0.10.356	2.0.10.356	03-25-2019	25-3-2019 9:23:30	10:23:30	2.0.10.252	5			3	1	3																			MoodQuest	?	ExpList	Quest	1					1	1	1		MoodQuestProc	How difficult did you find it to get into the mood, on a scale of 1 (not at all) to 8 (very much)?	3	22398	MoodQuestions
Mood	108	1	<?xml version="1.0"?>\n<Clock xmlns:dt="urn:schemas-microsoft-com:datatypes"><Description dt:dt="string">E-Prime Primary Realtime Clock</Description><StartTime><Timestamp dt:dt="int">0</Timestamp><DateUtc dt:dt="string">2019-03-25T09:23:30Z</DateUtc></StartTime><FrequencyChanges><FrequencyChange><Frequency dt:dt="r8">3312685</Frequency><Timestamp dt:dt="r8">19626371462</Timestamp><Current dt:dt="r8">0</Current><DateUtc dt:dt="string">2019-03-25T09:23:30Z</DateUtc></FrequencyChange></FrequencyChanges></Clock>\n	Mood-108-1	60.005	1.0.0.399	1	-1847840513	Professional	2.0.10.356	2.0.10.356	03-25-2019	25-3-2019 9:23:30	10:23:30	2.0.10.252	5			3	1	3																			MoodQuest	?	ExpList	Quest	2					2	1	2		MoodQuestProc	How much did the example story help to get into the mood, on a scale of 1 (not at all) to 8 (very much)?	1	9395	MoodQuestions
Mood	108	1	<?xml version="1.0"?>\n<Clock xmlns:dt="urn:schemas-microsoft-com:datatypes"><Description dt:dt="string">E-Prime Primary Realtime Clock</Description><StartTime><Timestamp dt:dt="int">0</Timestamp><DateUtc dt:dt="string">2019-03-25T09:23:30Z</DateUtc></StartTime><FrequencyChanges><FrequencyChange><Frequency dt:dt="r8">3312685</Frequency><Timestamp dt:dt="r8">19626371462</Timestamp><Current dt:dt="r8">0</Current><DateUtc dt:dt="string">2019-03-25T09:23:30Z</DateUtc></FrequencyChange></FrequencyChanges></Clock>\n	Mood-108-1	60.005	1.0.0.399	1	-1847840513	Professional	2.0.10.356	2.0.10.356	03-25-2019	25-3-2019 9:23:30	10:23:30	2.0.10.252	5			3	1	3																			MoodQuest	?	ExpList	Quest	3					3	1	3		MoodQuestProc	How much did the music help to get into the mood, on a scale of 1 (not at all) to 8 (very much)?	7	12494	MoodQuestions
Mood	108	1	<?xml version="1.0"?>\n<Clock xmlns:dt="urn:schemas-microsoft-com:datatypes"><Description dt:dt="string">E-Prime Primary Realtime Clock</Description><StartTime><Timestamp dt:dt="int">0</Timestamp><DateUtc dt:dt="string">2019-03-25T09:23:30Z</DateUtc></StartTime><FrequencyChanges><FrequencyChange><Frequency dt:dt="r8">3312685</Frequency><Timestamp dt:dt="r8">19626371462</Timestamp><Current dt:dt="r8">0</Current><DateUtc dt:dt="string">2019-03-25T09:23:30Z</DateUtc></FrequencyChange></FrequencyChanges></Clock>\n	Mood-108-1	60.005	1.0.0.399	1	-1847840513	Professional	2.0.10.356	2.0.10.356	03-25-2019	25-3-2019 9:23:30	10:23:30	2.0.10.252	5			3	1	3																			MoodQuest	?	ExpList	Quest	4					4	1	4		MoodQuestProc	How much did your own memory help to get into the mood, on a scale of 1 (not at all) to 8 (very much)?	4	4694	MoodQuestions
Mood	108	1	<?xml version="1.0"?>\n<Clock xmlns:dt="urn:schemas-microsoft-com:datatypes"><Description dt:dt="string">E-Prime Primary Realtime Clock</Description><StartTime><Timestamp dt:dt="int">0</Timestamp><DateUtc dt:dt="string">2019-03-25T09:23:30Z</DateUtc></StartTime><FrequencyChanges><FrequencyChange><Frequency dt:dt="r8">3312685</Frequency><Timestamp dt:dt="r8">19626371462</Timestamp><Current dt:dt="r8">0</Current><DateUtc dt:dt="string">2019-03-25T09:23:30Z</DateUtc></FrequencyChange></FrequencyChanges></Clock>\n	Mood-108-1	60.005	1.0.0.399	1	-1847840513	Professional	2.0.10.356	2.0.10.356	03-25-2019	25-3-2019 9:23:30	10:23:30	2.0.10.252	6			4	1	4																			Mood	a	ExpList	Mood3	1	1	3	3	3				6	AffectGridProc				AffectGrid
Mood	109	1	<?xml version="1.0"?>\n<Clock xmlns:dt="urn:schemas-microsoft-com:datatypes"><Description dt:dt="string">E-Prime Primary Realtime Clock</Description><StartTime><Timestamp dt:dt="int">0</Timestamp><DateUtc dt:dt="string">2019-03-25T11:15:24Z</DateUtc></StartTime><FrequencyChanges><FrequencyChange><Frequency dt:dt="r8">3312695</Frequency><Timestamp dt:dt="r8">41832724751</Timestamp><Current dt:dt="r8">0</Current><DateUtc dt:dt="string">2019-03-25T11:15:24Z</DateUtc></FrequencyChange></FrequencyChanges></Clock>\n	Mood-109-1	60.005	1.0.0.399	1	-1116286319	Professional	2.0.10.356	2.0.10.356	03-25-2019	25-3-2019 11:15:24	12:15:24	2.0.10.252	1	1	It’s your birthday and your friends throw you an amazing surprise party! All of your favorite people are there, and they are having a great time together with you, doing the best imaginable birthday activities. 				E	1										1	1	1	excited			an excited	InitializeProc		IntExpList															
Mood	109	1	<?xml version="1.0"?>\n<Clock xmlns:dt="urn:schemas-microsoft-com:datatypes"><Description dt:dt="string">E-Prime Primary Realtime Clock</Description><StartTime><Timestamp dt:dt="int">0</Timestamp><DateUtc dt:dt="string">2019-03-25T11:15:24Z</DateUtc></StartTime><FrequencyChanges><FrequencyChange><Frequency dt:dt="r8">3312695</Frequency><Timestamp dt:dt="r8">41832724751</Timestamp><Current dt:dt="r8">0</Current><DateUtc dt:dt="string">2019-03-25T11:15:24Z</DateUtc></FrequencyChange></FrequencyChanges></Clock>\n	Mood-109-1	60.005	1.0.0.399	1	-1116286319	Professional	2.0.10.356	2.0.10.356	03-25-2019	25-3-2019 11:15:24	12:15:24	2.0.10.252	2																	2	1	2					Mood		IntExpList		1	1	1	1	7				7	AffectGridProc				AffectGrid
Mood	109	1	<?xml version="1.0"?>\n<Clock xmlns:dt="urn:schemas-microsoft-com:datatypes"><Description dt:dt="string">E-Prime Primary Realtime Clock</Description><StartTime><Timestamp dt:dt="int">0</Timestamp><DateUtc dt:dt="string">2019-03-25T11:15:24Z</DateUtc></StartTime><FrequencyChanges><FrequencyChange><Frequency dt:dt="r8">3312695</Frequency><Timestamp dt:dt="r8">41832724751</Timestamp><Current dt:dt="r8">0</Current><DateUtc dt:dt="string">2019-03-25T11:15:24Z</DateUtc></FrequencyChange></FrequencyChanges></Clock>\n	Mood-109-1	60.005	1.0.0.399	1	-1116286319	Professional	2.0.10.356	2.0.10.356	03-25-2019	25-3-2019 11:15:24	12:15:24	2.0.10.252	3	1	It’s your birthday and your friends throw you an amazing surprise party! All of your favorite people are there, and they are having a great time together with you, doing the best imaginable birthday activities. 	1	1	1	E	1	1		0	0	86385	600038		0	0				excited			an excited	MoodProc	?	ExpList	Music														
Mood	109	1	<?xml version="1.0"?>\n<Clock xmlns:dt="urn:schemas-microsoft-com:datatypes"><Description dt:dt="string">E-Prime Primary Realtime Clock</Description><StartTime><Timestamp dt:dt="int">0</Timestamp><DateUtc dt:dt="string">2019-03-25T11:15:24Z</DateUtc></StartTime><FrequencyChanges><FrequencyChange><Frequency dt:dt="r8">3312695</Frequency><Timestamp dt:dt="r8">41832724751</Timestamp><Current dt:dt="r8">0</Current><DateUtc dt:dt="string">2019-03-25T11:15:24Z</DateUtc></FrequencyChange></FrequencyChanges></Clock>\n	Mood-109-1	60.005	1.0.0.399	1	-1116286319	Professional	2.0.10.356	2.0.10.356	03-25-2019	25-3-2019 11:15:24	12:15:24	2.0.10.252	4			2	1	2																			Mood	a	ExpList	Mood2	1	1	2	2	7				8	AffectGridProc				AffectGrid
Mood	109	1	<?xml version="1.0"?>\n<Clock xmlns:dt="urn:schemas-microsoft-com:datatypes"><Description dt:dt="string">E-Prime Primary Realtime Clock</Description><StartTime><Timestamp dt:dt="int">0</Timestamp><DateUtc dt:dt="string">2019-03-25T11:15:24Z</DateUtc></StartTime><FrequencyChanges><FrequencyChange><Frequency dt:dt="r8">3312695</Frequency><Timestamp dt:dt="r8">41832724751</Timestamp><Current dt:dt="r8">0</Current><DateUtc dt:dt="string">2019-03-25T11:15:24Z</DateUtc></FrequencyChange></FrequencyChanges></Clock>\n	Mood-109-1	60.005	1.0.0.399	1	-1116286319	Professional	2.0.10.356	2.0.10.356	03-25-2019	25-3-2019 11:15:24	12:15:24	2.0.10.252	5			3	1	3																			MoodQuest	?	ExpList	Quest	1					1	1	1		MoodQuestProc	How difficult did you find it to get into the mood, on a scale of 1 (not at all) to 8 (very much)?	1	6353	MoodQuestions
Mood	109	1	<?xml version="1.0"?>\n<Clock xmlns:dt="urn:schemas-microsoft-com:datatypes"><Description dt:dt="string">E-Prime Primary Realtime Clock</Description><StartTime><Timestamp dt:dt="int">0</Timestamp><DateUtc dt:dt="string">2019-03-25T11:15:24Z</DateUtc></StartTime><FrequencyChanges><FrequencyChange><Frequency dt:dt="r8">3312695</Frequency><Timestamp dt:dt="r8">41832724751</Timestamp><Current dt:dt="r8">0</Current><DateUtc dt:dt="string">2019-03-25T11:15:24Z</DateUtc></FrequencyChange></FrequencyChanges></Clock>\n	Mood-109-1	60.005	1.0.0.399	1	-1116286319	Professional	2.0.10.356	2.0.10.356	03-25-2019	25-3-2019 11:15:24	12:15:24	2.0.10.252	5			3	1	3																			MoodQuest	?	ExpList	Quest	2					2	1	2		MoodQuestProc	How much did the example story help to get into the mood, on a scale of 1 (not at all) to 8 (very much)?	2	4623	MoodQuestions
Mood	109	1	<?xml version="1.0"?>\n<Clock xmlns:dt="urn:schemas-microsoft-com:datatypes"><Description dt:dt="string">E-Prime Primary Realtime Clock</Description><StartTime><Timestamp dt:dt="int">0</Timestamp><DateUtc dt:dt="string">2019-03-25T11:15:24Z</DateUtc></StartTime><FrequencyChanges><FrequencyChange><Frequency dt:dt="r8">3312695</Frequency><Timestamp dt:dt="r8">41832724751</Timestamp><Current dt:dt="r8">0</Current><DateUtc dt:dt="string">2019-03-25T11:15:24Z</DateUtc></FrequencyChange></FrequencyChanges></Clock>\n	Mood-109-1	60.005	1.0.0.399	1	-1116286319	Professional	2.0.10.356	2.0.10.356	03-25-2019	25-3-2019 11:15:24	12:15:24	2.0.10.252	5			3	1	3																			MoodQuest	?	ExpList	Quest	3					3	1	3		MoodQuestProc	How much did the music help to get into the mood, on a scale of 1 (not at all) to 8 (very much)?	8	8234	MoodQuestions
Mood	109	1	<?xml version="1.0"?>\n<Clock xmlns:dt="urn:schemas-microsoft-com:datatypes"><Description dt:dt="string">E-Prime Primary Realtime Clock</Description><StartTime><Timestamp dt:dt="int">0</Timestamp><DateUtc dt:dt="string">2019-03-25T11:15:24Z</DateUtc></StartTime><FrequencyChanges><FrequencyChange><Frequency dt:dt="r8">3312695</Frequency><Timestamp dt:dt="r8">41832724751</Timestamp><Current dt:dt="r8">0</Current><DateUtc dt:dt="string">2019-03-25T11:15:24Z</DateUtc></FrequencyChange></FrequencyChanges></Clock>\n	Mood-109-1	60.005	1.0.0.399	1	-1116286319	Professional	2.0.10.356	2.0.10.356	03-25-2019	25-3-2019 11:15:24	12:15:24	2.0.10.252	5			3	1	3																			MoodQuest	?	ExpList	Quest	4					4	1	4		MoodQuestProc	How much did your own memory help to get into the mood, on a scale of 1 (not at all) to 8 (very much)?	8	3845	MoodQuestions
Mood	109	1	<?xml version="1.0"?>\n<Clock xmlns:dt="urn:schemas-microsoft-com:datatypes"><Description dt:dt="string">E-Prime Primary Realtime Clock</Description><StartTime><Timestamp dt:dt="int">0</Timestamp><DateUtc dt:dt="string">2019-03-25T11:15:24Z</DateUtc></StartTime><FrequencyChanges><FrequencyChange><Frequency dt:dt="r8">3312695</Frequency><Timestamp dt:dt="r8">41832724751</Timestamp><Current dt:dt="r8">0</Current><DateUtc dt:dt="string">2019-03-25T11:15:24Z</DateUtc></FrequencyChange></FrequencyChanges></Clock>\n	Mood-109-1	60.005	1.0.0.399	1	-1116286319	Professional	2.0.10.356	2.0.10.356	03-25-2019	25-3-2019 11:15:24	12:15:24	2.0.10.252	6			4	1	4																			Mood	a	ExpList	Mood3	1	1	3	3	7				8	AffectGridProc				AffectGrid
Mood	11	1	<?xml version="1.0"?>\n<Clock xmlns:dt="urn:schemas-microsoft-com:datatypes"><Description dt:dt="string">E-Prime Primary Realtime Clock</Description><StartTime><Timestamp dt:dt="int">0</Timestamp><DateUtc dt:dt="string">2019-03-11T12:21:34Z</DateUtc></StartTime><FrequencyChanges><FrequencyChange><Frequency dt:dt="r8">3312675</Frequency><Timestamp dt:dt="r8">54510939231</Timestamp><Current dt:dt="r8">0</Current><DateUtc dt:dt="string">2019-03-11T12:21:34Z</DateUtc></FrequencyChange></FrequencyChanges></Clock>\n	Mood-11-1	60.004	1.0.0.399	1	-1322968955	Professional	2.0.10.356	2.0.10.356	03-11-2019	11-3-2019 12:21:34	13:21:34	2.0.10.252	1	1	It’s your birthday and your friends throw you an amazing surprise party! All of your favorite people are there, and they are having a great time together with you, doing the best imaginable birthday activities. 				E	1										1	1	1	excited			an excited	InitializeProc		IntExpList															
Mood	11	1	<?xml version="1.0"?>\n<Clock xmlns:dt="urn:schemas-microsoft-com:datatypes"><Description dt:dt="string">E-Prime Primary Realtime Clock</Description><StartTime><Timestamp dt:dt="int">0</Timestamp><DateUtc dt:dt="string">2019-03-11T12:21:34Z</DateUtc></StartTime><FrequencyChanges><FrequencyChange><Frequency dt:dt="r8">3312675</Frequency><Timestamp dt:dt="r8">54510939231</Timestamp><Current dt:dt="r8">0</Current><DateUtc dt:dt="string">2019-03-11T12:21:34Z</DateUtc></FrequencyChange></FrequencyChanges></Clock>\n	Mood-11-1	60.004	1.0.0.399	1	-1322968955	Professional	2.0.10.356	2.0.10.356	03-11-2019	11-3-2019 12:21:34	13:21:34	2.0.10.252	2																	2	1	2					Mood		IntExpList		1	1	1	1	7				8	AffectGridProc				AffectGrid
Mood	11	1	<?xml version="1.0"?>\n<Clock xmlns:dt="urn:schemas-microsoft-com:datatypes"><Description dt:dt="string">E-Prime Primary Realtime Clock</Description><StartTime><Timestamp dt:dt="int">0</Timestamp><DateUtc dt:dt="string">2019-03-11T12:21:34Z</DateUtc></StartTime><FrequencyChanges><FrequencyChange><Frequency dt:dt="r8">3312675</Frequency><Timestamp dt:dt="r8">54510939231</Timestamp><Current dt:dt="r8">0</Current><DateUtc dt:dt="string">2019-03-11T12:21:34Z</DateUtc></FrequencyChange></FrequencyChanges></Clock>\n	Mood-11-1	60.004	1.0.0.399	1	-1322968955	Professional	2.0.10.356	2.0.10.356	03-11-2019	11-3-2019 12:21:34	13:21:34	2.0.10.252	3	1	It’s your birthday and your friends throw you an amazing surprise party! All of your favorite people are there, and they are having a great time together with you, doing the best imaginable birthday activities. 	1	1	1	E	1	1		0	16	252177	600042		0	0				excited			an excited	MoodProc	?	ExpList	Music														
Mood	11	1	<?xml version="1.0"?>\n<Clock xmlns:dt="urn:schemas-microsoft-com:datatypes"><Description dt:dt="string">E-Prime Primary Realtime Clock</Description><StartTime><Timestamp dt:dt="int">0</Timestamp><DateUtc dt:dt="string">2019-03-11T12:21:34Z</DateUtc></StartTime><FrequencyChanges><FrequencyChange><Frequency dt:dt="r8">3312675</Frequency><Timestamp dt:dt="r8">54510939231</Timestamp><Current dt:dt="r8">0</Current><DateUtc dt:dt="string">2019-03-11T12:21:34Z</DateUtc></FrequencyChange></FrequencyChanges></Clock>\n	Mood-11-1	60.004	1.0.0.399	1	-1322968955	Professional	2.0.10.356	2.0.10.356	03-11-2019	11-3-2019 12:21:34	13:21:34	2.0.10.252	4			2	1	2																			Mood	a	ExpList	Mood2	1	1	2	2	6				7	AffectGridProc				AffectGrid
